<?xml version="1.0" encoding="UTF-8"?>
<!--This xml example is for illustrative purposes only and has not been clinically verified-->
<Bundle xmlns="http://hl7.org/fhir" xmlns:xsi="http://www.w3.org/2001/XMLSchema-instance" xsi:schemaLocation="http://hl7.org/fhir file:///C:/GitHubRepo/ITK-FHIR-Outpatient-Letter/schemas/bundle.xsd">
 <id value="6191cc21-cb11-4d99-8cb2-2afe1c7e9d2f"/>
 <meta>
  <profile value="https://fhir.nhs.uk/STU3/StructureDefinition/ITK-Document-Bundle-1"/>
 </meta>
 <identifier>
  <system value="https://tools.ietf.org/html/rfc4122"/>
  <value value="720d56df-6ac7-4803-bde3-e3a2373cd61e"/>
 </identifier>
 <type value="document"/>
 <!--Outpatient Letter Composition-->
 <entry>
  <fullUrl value="urn:uuid:95ab3b52-b229-43db-a919-fa09db5e08d3"/>
  <resource>
   <Composition>
    <id value="95ab3b52-b229-43db-a919-fa09db5e08d3"/>
    <meta>
     <profile value="https://fhir.nhs.uk/STU3/StructureDefinition/ITK-OPL-Composition-1"/>
    </meta>
    <!-- Information Recipient 1- the patient's GP -->
    <extension url="https://fhir.nhs.uk/STU3/StructureDefinition/Extension-ITK-InformationRecipient-1">
     <valueReference>
      <reference value="urn:uuid:5e414a77-d394-4248-a631-00e45ddb64a0"/>
     </valueReference>
    </extension>
    <!-- Information Recipient 2 - the patient -->
    <extension url="https://fhir.nhs.uk/STU3/StructureDefinition/Extension-ITK-InformationRecipient-1">
     <valueReference>
      <reference value="urn:uuid:4e17be8f-8694-47e3-8740-ccf306f6cf02"/>
     </valueReference>
    </extension>
    <!-- Information Recipient 3 - the feeding nurse -->
    <extension url="https://fhir.nhs.uk/STU3/StructureDefinition/Extension-ITK-InformationRecipient-1">
     <valueReference>
      <reference value="urn:uuid:5ca24866-f34e-43d5-9d4a-c661beb9b5ae"/>
     </valueReference>
    </extension>
     <!-- Information Recipient 4 - the patient's neurologist -->
    <extension url="https://fhir.nhs.uk/STU3/StructureDefinition/Extension-ITK-InformationRecipient-1">
     <valueReference>
      <reference value="urn:uuid:d25fd1c6-2658-4db7-9af0-86c5f95e8ec9"/>
     </valueReference>
    </extension>
      <!-- Information Recipient 5 - the hospital dietitian -->
    <extension url="https://fhir.nhs.uk/STU3/StructureDefinition/Extension-ITK-InformationRecipient-1">
     <valueReference>
      <reference value="urn:uuid:d25fd1c6-2658-4db7-9af0-86c5f95e8ec9"/>
     </valueReference>
    </extension>
    <!-- Extension to carry details of the Correspondence Care Setting Type. -->
    <extension url="https://fhir.nhs.uk/STU3/StructureDefinition/Extension-ITK-CareSettingType-1">
     <valueCodeableConcept>
      <coding>
       <system value="http://snomed.info/sct"/>
       <code value="310091004"/>
       <display value="Community-based dietetics service"/>
      </coding>
     </valueCodeableConcept>
    </extension>
    <identifier>
     <value value="080725c3-eb0f-45b6-8beb-f33d9f0edabe"/>
    </identifier>
    <status value="final"/>
    <type>
     <!--Outpatient letter -->
     <coding>
      <system value="http://snomed.info/sct"/>
      <code value="823681000000100"/>
      <display value="Outpatient letter"/>
     </coding>
    </type>
    <subject>
     <reference value="urn:uuid:4e17be8f-8694-47e3-8740-ccf306f6cf02"/>
    </subject>
    <!--Reference to the clinical encounter or type of care this documentation is associated with.-->
    <encounter>
     <reference value="urn:uuid:bd25f74e-2be5-4728-ac16-4771e2998cd2"/>
    </encounter>
    <!--The composition editing time, when the composition was last logically changed by the author.-->
    <date value="2015-05-01T17:00:00+00:00"/>
    <!--Identifies who is responsible for the information in the composition, not necessarily who typed it in-->
    <author>
     <reference value="urn:uuid:2c064afa-dbd6-44b8-86e6-a3e7fbdbcb48"/>
    </author>
    <title value="Outpatient letter"/>
    <!--The code specifying the level of confidentiality of the Composition.-->
    <confidentiality value="V"/>
    <!--Identifies the organization responsible for ongoing maintenance of and access to the composition/document information.-->
    <custodian>
     <reference value="urn:uuid:f93186cd-b628-47e6-b97f-102ae75e6845"/>
    </custodian>
   </Composition>
  </resource>
 </entry>
 <!--Encounter Example 1-->
 <entry>
  <fullUrl value="urn:uuid:bd25f74e-2be5-4728-ac16-4771e2998cd2"/>
  <resource>
   <Encounter>
    <id value="bd25f74e-2be5-4728-ac16-4771e2998cd2"/>
    <meta>
     <profile value="https://fhir.nhs.uk/STU3/StructureDefinition/CareConnect-ITK-Encounter-1"/>
    </meta>
    <identifier>
     <system value="https://tools.ietf.org/html/rfc4122"/>
     <value value="13c73015-d8fa-4844-8d68-4f856883eca8"/>
    </identifier>
    <status value="finished"/>
    <class>
     <system value="http://hl7.org/fhir/v3-ActEncounterCode"/>
     <code value="AMB"/>
     <display value="ambulatory"/>
    </class>
    <!--Specific type of encounter-->
    <type>
     <coding>
     <system value="http://snomed.info/sct"/>
      <code value="163381000000105"/>
      <display value="Outpatient Clinic Attendance"/>
     </coding>
    </type>
    <!--Reference to the patient as the subject of the Encounter-->
    <subject>
     <reference value="urn:uuid:4e17be8f-8694-47e3-8740-ccf306f6cf02"/>
    </subject>
    <!--Reference to the participants present during the encounter-->
    <participant>
     <type>
      <coding>
       <system value="http://hl7.org/fhir/v3/ParticipationType"/>
       <code value="PPRF"/>
       <display value="primary performer"/>
      </coding>
     </type>
     <individual>
      <reference value="urn:uuid:2c064afa-dbd6-44b8-86e6-a3e7fbdbcb48"/>
     </individual>
    </participant>
    <period>
     <start value="2017-05-01T09:00:00+00:00"/>
     <end value="2017-05-01T09:45:00+00:00"/>
    </period>
    <!--	The list of diagnoses relevant to this encounter-->
    <diagnosis>
     <!--Reason the encounter takes place (resource)-->
     <condition>
      <!--Chief complaint - Need a additional condition to ref a condition for swallowing difficulties as the admission or discharge diagnosis-->
      <reference value="urn:uuid:5590e1f9-c85b-4e14-be4c-efb6aa693fa5"/>
     </condition>
     <role>
      <coding>
       <system value="http://hl7.org/fhir/diagnosis-role"/>
       <code value="CC"/>
       <display value="Chief complaint"/>
      </coding>
     </role>
    </diagnosis>
    <hospitalization>
     <admitSource>
      <coding>
       <system value="http://hl7.org/fhir/admit-source"/>
       <code value="emd"/>
       <display value="From accident/emergency department"/>
      </coding>
     </admitSource>
     <!--	Category or kind of location after discharge-->
     <dischargeDisposition>
      <coding>
       <system value="http://hl7.org/fhir/discharge-disposition"/>
       <code value="home"/>
       <display value="Home"/>
      </coding>
     </dischargeDisposition>
    </hospitalization>
   </Encounter>
  </resource>
 </entry>
 <!--Medication List Example 1-->
 <entry>
  <fullUrl value="urn:uuid:cef7f8d5-78e3-4866-89f1-62470d6fd636"/>
  <resource>
   <List>
    <id value="cef7f8d5-78e3-4866-89f1-62470d6fd636"/>
    <meta>
     <profile value="https://fhir.nhs.uk/STU3/StructureDefinition/ITK-Medication-List-1"/>
    </meta>
    <identifier>
     <system value="https://tools.ietf.org/html/rfc4122"/>
     <value value="c28e33b7-dd29-4c9d-957c-ab4a834e5e77"/>
    </identifier>
    <status value="current"/>
    <mode value="snapshot"/>
    <code>
     <coding>
      <system value="http://hl7.org/fhir/list-example-use-codes"/>
      <code value="medications"/>
      <display value="Medication List"/>
     </coding>
    </code>
    <subject>
     <reference value="urn:uuid:4e17be8f-8694-47e3-8740-ccf306f6cf02"/>
    </subject>
    <entry>
     <flag>
      <coding>
       <system value="https://fhir.nhs.uk/STU3/ITK-PatientMedicationChangeType-1"/>
       <code value="09"/>
       <display value="Active"/>
      </coding>
     </flag>
     <item>
      <!--same guid as for edis example-->
      <reference value="urn:uuid:11baa8fd-b670-47d1-ab3a-183488af5c6e"/>
     </item>
    </entry>
   </List>
  </resource>
 </entry>
 <!--Medication Statement Example 1-->
 <entry>
  <fullUrl value="urn:uuid:11baa8fd-b670-47d1-ab3a-183488af5c6e"/>
  <resource>
   <MedicationStatement>
    <id value="11baa8fd-b670-47d1-ab3a-183488af5c6e"/>
    <meta>
     <profile value="https://fhir.nhs.uk/STU3/StructureDefinition/CareConnect-ITK-MedicationStatement-1"/>
    </meta>
    <!--Must remove and ref elsewhere-->
    <!--			<extension url="https://fhir.hl7.org.uk/StructureDefinition/Extension-CareConnect-MedicationFlag-1">
					<valueReference>
						<reference value="urn:uuid:f7fba03d-ea84-4849-b059-dee82cfd4f46"/> -->
    <!--this ref will cause validator to crash is urn:uuid suffix added. entry 6-->
    <!--
					</valueReference>
				</extension>-->
    <status value="active"/>
    <medicationReference>
     <reference value="urn:uuid:46c1a1b6-c2a5-44bc-a0df-80db5d4fb423"/>
     <display value="Enteral+supplement feeds"/>
    </medicationReference>
    <subject>
     <reference value="urn:uuid:4e17be8f-8694-47e3-8740-ccf306f6cf02"/>
    </subject>
    <taken value="y"/>
    <!--Update all dosage details and use edis example as basis-->
    <dosage>
     <text value="100ml a day"/>
     <!--This is wrong - taken from edis example as a base template-->
     <timing>
      <repeat>
       <frequency value="1"/>
       <period value="1"/>
       <periodUnit value="d"/>
      </repeat>
     </timing>
     <asNeededBoolean value="false"/>
     <route>
      <coding>
       <system value="http://snomed.info/sct"/>
       <code value="225373002"/>
       <display value="Percutaneous endoscopic gastrostomy feeding"/>
      </coding>
     </route>
     <doseQuantity>
      <!--Check dose quantity and codes used-->
      <value value="10"/>
      <unit value="ml"/>
      <system value="http://unitsofmeasure.org"/>
      <code value="ml"/>
     </doseQuantity>
     <maxDosePerPeriod>
      <!--This could all be wrong - snomed value is for fluid-->
      <numerator>
       <value value="10"/>
       <unit value="ml"/>
       <system value="http://snomed.info/sct"/>
       <code value="255765007"/>
      </numerator>
      <denominator>
       <value value="100"/>
       <system value="http://unitsofmeasure.org"/>
       <code value="d"/>
      </denominator>
     </maxDosePerPeriod>
    </dosage>
   </MedicationStatement>
  </resource>
 </entry>
 <!--Medication Example 1-->
 <entry>
  <fullUrl value="urn:uuid:46c1a1b6-c2a5-44bc-a0df-80db5d4fb423"/>
  <resource>
   <Medication>
    <id value="46c1a1b6-c2a5-44bc-a0df-80db5d4fb423"/>
    <meta>
     <profile value="https://fhir.hl7.org.uk/STU3/StructureDefinition/CareConnect-Medication-1"/>
    </meta>
    <code>
     <coding>
      <system value="http://snomed.info/sct"/>
      <code value="346415002"/>
      <display value="Enteral+supplement feeds"/>
     </coding>
    </code>
   </Medication>
  </resource>
 </entry>
 <!--Medication Flag Example 1-->
 <entry>
  <fullUrl value="urn:uuid:f7fba03d-ea84-4849-b059-dee82cfd4f46"/>
  <resource>
   <Flag>
    <id value="f7fba03d-ea84-4849-b059-dee82cfd4f46"/>
    <meta>
     <profile value="https://fhir.nhs.uk/STU3/StructureDefinition/CareConnect-ITK-Medication-Flag-1"/>
    </meta>
    <!--This references the MedicationStatement - check this is correct.-->
    <extension url="https://fhir.nhs.uk/STU3/StructureDefinition/Extension-CareConnect-ITK-MedicationFlagAssociation-1">
     <valueReference>
      <reference value="urn:uuid:11baa8fd-b670-47d1-ab3a-183488af5c6e"/>
     </valueReference>
    </extension>
    <identifier>
     <system value="https://tools.ietf.org/html/rfc4122"/>
     <value value="76ef531e-d072-4f62-8c78-e16b35c188c8"/>
    </identifier>
    <status value="active"/>
    <category>
     <coding>
      <system value="http://hl7.org/fhir/flag-category"/>
      <code value="drug"/>
      <display value="Drug"/>
     </coding>
    </category>
    <code>
     <coding>
      <system value="https://fhir.hl7.org.uk/STU3/CareConnect-MedicationFlag-1"/>
      <code value="continue-indefinitely"/>
      <display value="Continue Indefinitely"/>
     </coding>
    </code>
    <subject>
     <reference value="urn:uuid:4e17be8f-8694-47e3-8740-ccf306f6cf02"/>
    </subject>
   </Flag>
  </resource>
 </entry>
 <!--Diagnoses 1-->
 <entry>
  <fullUrl value="urn:uuid:abbf4c46-f97b-4b04-9248-4f99a21e1879"/>
  <resource>
   <Condition>
    <id value="5590e1f9-c85b-4e14-be4c-efb6aa693fa5"/>
    <meta>
     <profile value="https://fhir.nhs.uk/STU3/StructureDefinition/CareConnect-ITK-Condition-1"/>
    </meta>
    <identifier>
     <system value="https://tools.ietf.org/html/rfc4122"/>
     <value value="c4b2d64e-23f3-4055-8299-141aacf9c16c"/>
    </identifier>
    <clinicalStatus value="active"/>
    <verificationStatus value="confirmed"/>
    <category>
     <coding>
      <system value="https://fhir.hl7.org.uk/STU3/CareConnect-ConditionCategory-1"/>
      <code value="diagnosis"/>
      <display value="Diagnosis"/>
     </coding>
    </category>
    <code>
     <coding>
      <system value="http://snomed.info/sct"/>
      <code value="230690007"/>
      <display value="Stroke"/>
     </coding>
    </code>
    <subject>
     <reference value="urn:uuid:4e17be8f-8694-47e3-8740-ccf306f6cf02"/>
    </subject>
    <assertedDate value="2017-03-29"/>
   </Condition>
  </resource>
 </entry>
   <!--Condition example 2-->
 <entry>
  <fullUrl value="urn:uuid:4ee4465e-ed0d-4a62-b110-6fcfce3156e9"/>
  <resource>
   <Condition>
    <id value="4ee4465e-ed0d-4a62-b110-6fcfce3156e9"/>
    <meta>
     <profile value="https://fhir.nhs.uk/STU3/StructureDefinition/CareConnect-ITK-Condition-1"/>
    </meta>
    <identifier>
     <system value="https://tools.ietf.org/html/rfc4122"/>
     <value value="dc1e1c67-c503-4802-8db2-e9d3d5912807"/>
    </identifier>
    <clinicalStatus value="active"/>
    <verificationStatus value="confirmed"/>
    <category>
     <coding>
      <system value="https://fhir.hl7.org.uk/STU3/CareConnect-ConditionCategory-1"/>
      <code value="diagnosis"/>
      <display value="Diagnosis"/>
     </coding>
    </category>
    <code>
     <coding>
      <system value="http://snomed.info/sct"/>
      <code value="20301004"/>
      <display value="Dysphasia"/>
     </coding>
    </code>
    <subject>
     <reference value="urn:uuid:4e17be8f-8694-47e3-8740-ccf306f6cf02"/>
    </subject>
    <onsetDateTime value="2017-04-02T12:00:00+00:00"/>
    <assertedDate value="2017-04-02"/>
    <asserter>
     <reference value="urn:uuid:d25fd1c6-2658-4db7-9af0-86c5f95e8ec9"/>
    </asserter>
</Condition>
  </resource>
 </entry>
 <!--Examination observation 1-->
 <entry>
  <fullUrl value="urn:uuid:3beb965d-6ba3-4731-b702-4f701affd73b"/>
  <resource>
   <Observation>
    <id value="3beb965d-6ba3-4731-b702-4f701affd73b"/>
    <meta>
     <!--Identifies the profile being used-->
     <profile value="https://fhir.nhs.uk/STU3/StructureDefinition/CareConnect-ITK-Observation-1"/>
    </meta>
    <identifier>
     <system value="https://tools.ietf.org/html/rfc4122"/>
     <value value="c9304f01-ec24-4e0d-a64f-ce4e67473e6a"/>
    </identifier>
    <status value="final"/>
    <code>
     <coding>
      <system value="http://snomed.info/sct"/>
      <code value="302199004"/>
      <display value="Examination"/>
     </coding>
    </code>
    <subject>
     <reference value="urn:uuid:4e17be8f-8694-47e3-8740-ccf306f6cf02"/>
    </subject>
    <effectiveDateTime value="2016-01-02T08:39:16+00:00"/>
    <performer>
     <reference value="urn:uuid:5e414a77-d394-4248-a631-00e45ddb64a0"/>
    </performer>
    <comment value="Weight 80kg, Height 175cm, BMI 26cm/2,"/>
   </Observation>
  </resource>
 </entry>
 <!--history observation 1-->
 <entry>
  <fullUrl value="urn:uuid:435a6755-5664-43f0-9472-8b62f1381568"/>
  <resource>
   <Observation>
    <id value="435a6755-5664-43f0-9472-8b62f1381568"/>
    <meta>
     <!--Identifies the profile being used-->
     <profile value="https://fhir.nhs.uk/STU3/StructureDefinition/CareConnect-ITK-Observation-1"/>
    </meta>
    <identifier>
     <system value="https://tools.ietf.org/html/rfc4122"/>
     <value value="a57585f4-eba9-443f-8eb9-ab69702ee1ee"/>
    </identifier>
    <status value="final"/>
    <code>
     <coding>
      <system value="http://snomed.info/sct"/>
      <code value="717121000000105"/>
      <display value="History"/>
     </coding>
    </code>
    <subject>
     <reference value="urn:uuid:4e17be8f-8694-47e3-8740-ccf306f6cf02"/>
    </subject>
    <effectiveDateTime value="2016-01-02T08:39:16+00:00"/>
    <performer>
     <reference value="urn:uuid:5e414a77-d394-4248-a631-00e45ddb64a0"/>
    </performer>
    <comment value="Mr. Linacre attended the community nutrition and dietetics outpatient clinic for review of feeding. Following a stroke Mr. Linacre acquired swallowing difficulties. During a recent admission to hospital Mr. Linacre was established on PEG tube feeding. The feeding tube insitu is a 15French PEG tube placed 05/04/17. The regimen being: 1000mls Energy Multifibre Feed at 100mls/hours for 10 hours (9am-7pm) with 1400mls water given as divided flushes (e.g. 10x140mls) throughout the day e.g. before and after feed and with medications.  His weight is stable."/>
   </Observation>
  </resource>
 </entry>
 <!--Patient-Example-1-->
 <entry>
  <fullUrl value="urn:uuid:4e17be8f-8694-47e3-8740-ccf306f6cf02"/>
  <resource>
   <Patient>
    <id value="4e17be8f-8694-47e3-8740-ccf306f6cf02"/>
    <meta>
     <profile value="https://fhir.hl7.org.uk/STU3/StructureDefinition/CareConnect-Patient-1"/>
    </meta>
    <extension url="https://fhir.hl7.org.uk/STU3/StructureDefinition/Extension-CareConnect-EthnicCategory-1">
     <valueCodeableConcept>
      <coding>
       <system value="https://fhir.hl7.org.uk/STU3/CareConnect-EthnicCategory-1"/>
       <code value="A"/>
       <display value="British, Mixed British"/>
      </coding>
     </valueCodeableConcept>
    </extension>
    <extension url="https://fhir.hl7.org.uk/STU3/StructureDefinition/Extension-CareConnect-ReligiousAffiliation-1">
     <valueCodeableConcept>
      <coding>
       <system value="http://snomed.info/sct"/>
       <code value="80587008"/>
       <display value="Jehovah's Witness"/>
      </coding>
     </valueCodeableConcept>
    </extension>
    <extension url="http://hl7.org/fhir/StructureDefinition/patient-cadavericDonor">
     <valueBoolean value="false"/>
    </extension>
    <extension url="https://fhir.hl7.org.uk/STU3/StructureDefinition/Extension-CareConnect-ResidentialStatus-1">
     <valueCodeableConcept>
      <coding>
       <system value="https://fhir.hl7.org.uk/CareConnect-ResidentialStatus-1"/>
       <code value="H"/>
       <display value="UK Resident"/>
      </coding>
     </valueCodeableConcept>
    </extension>
    <extension url="https://fhir.hl7.org.uk/STU3/StructureDefinition/Extension-CareConnect-TreatmentCategory-1">
     <valueCodeableConcept>
      <coding>
       <system value="https://fhir.hl7.org.uk/CareConnect-TreatmentCategory-1"/>
       <code value="8"/>
       <display value="Not applicable"/>
      </coding>
     </valueCodeableConcept>
    </extension>
    <extension url="https://fhir.hl7.org.uk/STU3/StructureDefinition/Extension-CareConnect-NHSCommunication-1">
     <extension url="language">
      <valueCodeableConcept>
       <coding>
        <system value="https://fhir.hl7.org.uk/STU3/CareConnect-HumanLanguage-1"/>
        <code value="en"/>
        <display value="English"/>
       </coding>
      </valueCodeableConcept>
     </extension>
     <extension url="preferred">
      <valueBoolean value="true"/>
     </extension>
     <extension url="modeOfCommunication">
      <valueCodeableConcept>
       <coding>
        <system value="https://fhir.hl7.org.uk/STU3/CareConnect-LanguageAbilityMode-1"/>
        <code value="ESP"/>
        <display value="Expressed spoken"/>
       </coding>
      </valueCodeableConcept>
     </extension>
     <extension url="modeOfCommunication">
      <valueCodeableConcept>
       <coding>
        <system value="https://fhir.hl7.org.uk/STU3/CareConnect-LanguageAbilityMode-1"/>
        <code value="RWR"/>
        <display value="Received written"/>
       </coding>
      </valueCodeableConcept>
     </extension>
     <extension url="communicationProficiency">
      <valueCodeableConcept>
       <coding>
        <system value="https://fhir.hl7.org.uk/STU3/CareConnect-LanguageAbilityProficiency-1"/>
        <code value="E"/>
        <display value="Excellent"/>
       </coding>
      </valueCodeableConcept>
     </extension>
     <extension url="interpreterRequired">
      <valueBoolean value="false"/>
     </extension>
    </extension>
    <identifier>
     <extension url="https://fhir.hl7.org.uk/STU3/StructureDefinition/Extension-CareConnect-NHSNumberVerificationStatus-1">
      <valueCodeableConcept>
       <coding>
        <system value="https://fhir.hl7.org.uk/STU3/CareConnect-NHSNumberVerificationStatus-1"/>
        <code value="01"/>
        <display value="Number present and verified"/>
       </coding>
      </valueCodeableConcept>
     </extension>
     <system value="https://fhir.nhs.uk/Id/nhs-number"/>
     <value value="61033451188"/>
    </identifier>
    <active value="true"/>
    <name>
     <use value="usual"/>
     <family value="Linacre"/>
     <given value="Thomas"/>
     <prefix value="Mr"/>
    </name>
    <telecom>
     <system value="phone"/>
     <value value="077 7777 777"/>
     <use value="mobile"/>
    </telecom>
    <telecom>
     <system value="email"/>
     <value value="thomas@linacre.net"/>
     <use value="home"/>
    </telecom>
    <gender value="male"/>
    <birthDate value="1960-01-01"/>
    <address>
     <use value="home"/>
     <line value="29 Acacia Road"/>
     <postalCode value="BM9 6PL"/>
    </address>
   </Patient>
  </resource>
 </entry>
 <!--Practitioner-Example-1-->
 <entry>
  <fullUrl value="urn:uuid:5e414a77-d394-4248-a631-00e45ddb64a0"/>
  <resource>
   <Practitioner>
    <id value="5e414a77-d394-4248-a631-00e45ddb64a0"/>
    <meta>
     <profile value="https://fhir.hl7.org.uk/STU3/StructureDefinition/CareConnect-Practitioner-1"/>
    </meta>
    <identifier>
     <system value="https://fhir.nhs.uk/Id/sds-user-id"/>
     <value value="A111111"/>
    </identifier>
    <name>
     <family value="O`Reilly"/>
     <given value="C"/>
     <prefix value="Dr"/>
    </name>
    <telecom>
     <system value="phone"/>
     <value value="01234 956412"/>
     <use value="work"/>
    </telecom>
     <address>
     <line value="Canvas Health Centre"/>
     <city value="27, Acacia Road" />
     <postalCode value="BM9 6PM"/>
    </address>
   </Practitioner>
  </resource>
 </entry>
 <!--Practitioner-Example-2-->
 <entry>
  <fullUrl value="urn:uuid:d25fd1c6-2658-4db7-9af0-86c5f95e8ec9"/>
  <resource>
   <Practitioner>
    <id value="d25fd1c6-2658-4db7-9af0-86c5f95e8ec9"/>
    <meta>
     <profile value="https://fhir.hl7.org.uk/STU3/StructureDefinition/CareConnect-Practitioner-1"/>
    </meta>
    <name>
     <family value="McManus"/>
     <given value="Gerald"/>
     <prefix value="Dr"/>
    </name>
    <address>
     <line value="St. Crispin's Hospital"/>
     <city value="Donaldstown"/>
     <postalCode value="DO5 7TP"/>
    </address>
   </Practitioner>
  </resource>
 </entry>
 <!--Practitioner-Example-3-->
 <entry>
  <fullUrl value="urn:uuid:5ca24866-f34e-43d5-9d4a-c661beb9b5ae"/>
  <resource>
   <Practitioner>
    <id value="5ca24866-f34e-43d5-9d4a-c661beb9b5ae"/>
    <meta>
     <profile value="https://fhir.hl7.org.uk/STU3/StructureDefinition/CareConnect-Practitioner-1"/>
    </meta>
    <name>
     <family value="Sway"/>
     <given value="Doug"/>
     <prefix value="Mr"/>
    </name>
    </Practitioner>
  </resource>
 </entry>
  <!--Practitioner-Example-4-->
 <entry>
  <fullUrl value="urn:uuid:246a8b1a-24af-4690-b894-effe41c5638b"/>
  <resource>
   <Practitioner>
    <id value="246a8b1a-24af-4690-b894-effe41c5638b"/>
    <meta>
     <profile value="https://fhir.hl7.org.uk/STU3/StructureDefinition/CareConnect-Practitioner-1"/>
    </meta>
    <name>
     <family value="Bibi"/>
     <given value="Sugra"/>
     <prefix value="Ms"/>
    </name>
     <address>
     <line value="St. Crispin's Hospital"/>
     <city value="Donaldstown"/>
     <postalCode value="DO5 7TP"/>
    </address>
    </Practitioner>
  </resource>
 </entry>
  <!--Practitioner-Example-5-->
 <entry>
  <fullUrl value="urn:uuid:2c064afa-dbd6-44b8-86e6-a3e7fbdbcb48"/>
  <resource>
   <Practitioner>
    <id value="2c064afa-dbd6-44b8-86e6-a3e7fbdbcb48"/>
    <meta>
     <profile value="https://fhir.hl7.org.uk/STU3/StructureDefinition/CareConnect-Practitioner-1"/>
    </meta>
    <name>
     <family value="Blight"/>
     <given value="Susan"/>
     <prefix value="Mrs"/>
    </name>
    <telecom>
     <system value="phone"/>
     <value value="01234 569870"/>
     <use value="work"/>
    </telecom>
    <address>
     <line value="Canvas Health Centre"/>
     <city value="27, Acacia Road" />
     <postalCode value="BM9 6PM"/>
    </address>
    </Practitioner>
  </resource>
 </entry>
 <!--Practitioner roles-->
  <entry>
  <fullUrl value="urn:uuid:2b103117-a783-4a66-a0de-f308cd6b63cf"/>
  <resource>
   <PractitionerRole>
    <id value="2b103117-a783-4a66-a0de-f308cd6b63cf"/>
    <meta>
     <profile value="https://fhir.hl7.org.uk/STU3/StructureDefinition/CareConnect-PractitionerRole-1"/>
    </meta>
    <practitioner>
     <reference value="urn:uuid:5e414a77-d394-4248-a631-00e45ddb64a0"/>
    </practitioner>
    <organization>
     <reference value="urn:uuid:f9f24f89-646b-4a19-a6b1-cabfa3b612e1"/>
    </organization>
    <code>
     <coding>
      <system value="https://fhir.hl7.org.uk/STU3/CareConnect-SDSJobRoleName-1"/>
      <code value="R0260"/>
      <display value="General Medical Practitioner"/>
     </coding>
    </code>
   </PractitionerRole>
  </resource>
 </entry>
   <entry>
  <fullUrl value="urn:uuid:2e9585bc-4a09-4a06-8862-5a8cb6198fa7"/>
  <resource>
   <PractitionerRole>
    <id value="2e9585bc-4a09-4a06-8862-5a8cb6198fa7"/>
    <meta>
     <profile value="https://fhir.hl7.org.uk/STU3/StructureDefinition/CareConnect-PractitionerRole-1"/>
    </meta>
    <practitioner>
     <reference value="urn:uuid:d25fd1c6-2658-4db7-9af0-86c5f95e8ec9"/>
    </practitioner>
    <organization>
     <reference value="urn:uuid:12bba528-a08a-448b-946b-7e8008044025"/>
    </organization>
     <specialty>
   <coding>
 <system value="http://snomed.info/sct"/>
    		<code value="56397003"/>
		<display value="Neurologist"/>
		</coding>
</specialty>
   </PractitionerRole>
  </resource>
 </entry>
    <entry>
  <fullUrl value="urn:uuid:2bba2b2b-2b55-43ef-9b27-7ccf374cbaed"/>
  <resource>
   <PractitionerRole>
    <id value="2bba2b2b-2b55-43ef-9b27-7ccf374cbaed"/>
    <meta>
     <profile value="https://fhir.hl7.org.uk/STU3/StructureDefinition/CareConnect-PractitionerRole-1"/>
    </meta>
    <practitioner>
     <reference value="urn:uuid:5ca24866-f34e-43d5-9d4a-c661beb9b5ae"/>
    </practitioner>
    <organization>
     <reference value="urn:uuid:b945154b-114f-4da3-98fb-7f6978083e9b"/>
    </organization>
     <specialty>
   <coding>
 <system value="http://snomed.info/sct"/>
    		<code value="106292003"/>
		<display value="Professional nurse"/>
		</coding>
</specialty>
   </PractitionerRole>
  </resource>
 </entry>
   <entry>
  <fullUrl value="urn:uuid:ea8932d8-e341-46e3-849f-0fa24f48b5fc"/>
  <resource>
   <PractitionerRole>
    <id value="ea8932d8-e341-46e3-849f-0fa24f48b5fc"/>
    <meta>
     <profile value="https://fhir.hl7.org.uk/STU3/StructureDefinition/CareConnect-PractitionerRole-1"/>
    </meta>
    <practitioner>
     <reference value="urn:uuid:246a8b1a-24af-4690-b894-effe41c5638b"/>
    </practitioner>
    <organization>
     <reference value="urn:uuid:12bba528-a08a-448b-946b-7e8008044025"/>
    </organization>
   <specialty>
   <coding>
 <system value="http://snomed.info/sct"/>
    		<code value="309399009"/>
		<display value="Hospital dietitian"/>
		</coding>
</specialty>
   </PractitionerRole>
  </resource>
 </entry>
 <entry>
  <fullUrl value="urn:uuid:b9ea89f3-10d1-404d-810e-f8623ee11406"/>
  <resource>
   <PractitionerRole>
    <id value="b9ea89f3-10d1-404d-810e-f8623ee11406"/>
    <meta>
     <profile value="https://fhir.hl7.org.uk/STU3/StructureDefinition/CareConnect-PractitionerRole-1"/>
    </meta>
    <practitioner>
     <reference value="urn:uuid:2c064afa-dbd6-44b8-86e6-a3e7fbdbcb48"/>
    </practitioner>
    <organization>
     <reference value="urn:uuid:f93186cd-b628-47e6-b97f-102ae75e6845"/>
    </organization>
    <specialty>
   <coding>
 <system value="http://snomed.info/sct"/>
    		<code value="60008001"/>
		<display value="Community dietitian"/>
		</coding>
</specialty>
    <location>
    <reference value="urn:uuid:68c6b037-e5e5-4fd5-a401-86dea9a9c126"/>
</location>
   </PractitionerRole>
  </resource>
 </entry>
 <!--Organization-Example-1-->
 <entry>
  <fullUrl value="urn:uuid:f9f24f89-646b-4a19-a6b1-cabfa3b612e1"/>
  <resource>
   <Organization>
    <id value="f9f24f89-646b-4a19-a6b1-cabfa3b612e1"/>
    <meta>
     <profile value="https://fhir.hl7.org.uk/STU3/StructureDefinition/CareConnect-Organization-1"/>
    </meta>
    <identifier>
     <system value="https://fhir.nhs.uk/Id/ods-organization-code"/>
     <value value="A111111"/>
    </identifier>
    <type>
     <coding>
      <system value="http://hl7.org/fhir/organization-type"/>
      <code value="prov"/>
      <display value="Healthcare Provider"/>
     </coding>
    </type>
    <name value="Canvas Health Centre"/>
    <telecom>
     <system value="phone"/>
     <value value="01234 956412"/>
     <use value="work"/>
    </telecom>
    <telecom>
     <system value="email"/>
     <value value="Admin@MMC.co.uk"/>
    </telecom>
    <address>
     <use value="work"/>
     <line value="27 Acacia Road"/>
     <postalCode value="BM9 6PM "/>
    </address>
   </Organization>
  </resource>
 </entry>
 <!--Organization-Example-2-->
 <entry>
  <fullUrl value="urn:uuid:12bba528-a08a-448b-946b-7e8008044025"/>
  <resource>
   <Organization>
    <id value="12bba528-a08a-448b-946b-7e8008044025"/>
    <meta>
     <profile value="https://fhir.hl7.org.uk/STU3/StructureDefinition/CareConnect-Organization-1"/>
    </meta>
    <identifier>
     <system value="https://fhir.nhs.uk/Id/ods-organization-code"/>
     <value value="RX0000"/>
    </identifier>
    <type>
     <coding>
      <system value="http://hl7.org/fhir/organization-type"/>
      <code value="prov"/>
      <display value="Healthcare Provider"/>
     </coding>
    </type>
    <name value="St Crispin’s Hospital"/>
    <telecom>
     <system value="phone"/>
     <value value="01234 567890"/>
     <use value="work"/>
    </telecom>
    <address>
     <line value="St Crispin’s Hospital"/>
     <line value="Donaldstown"/>
     <postalCode value="DO5 7TP"/>
    </address>
   </Organization>
  </resource>
 </entry>
 <!--Organization-Example-3-->
 <entry>
  <fullUrl value="urn:uuid:01bb1ccc-577b-4a4a-9fb0-9c8fe9f21fa3"/>
  <resource>
   <Organization>
    <id value="01bb1ccc-577b-4a4a-9fb0-9c8fe9f21fa3"/>
    <meta>
     <profile value="https://fhir.hl7.org.uk/STU3/StructureDefinition/CareConnect-Organization-1"/>
    </meta>
    <type>
     <coding>
      <system value="http://hl7.org/fhir/organization-type"/>
      <code value="prov"/>
      <display value="Healthcare Provider"/>
     </coding>
    </type>
    <name value="Adobe Health Centre"/>
    <telecom>
     <system value="phone"/>
     <value value="01234 956412"/>
     <use value="work"/>
    </telecom>
    <address>
     <line value="Adobe Health Centre"/>
     <line value="27 Acacia Road"/>
     <postalCode value="BM9 6PM"/>
    </address>
   </Organization>
  </resource>
 </entry>
  <!--Organization-Example-4-->
 <entry>
  <fullUrl value="urn:uuid:b945154b-114f-4da3-98fb-7f6978083e9b"/>
  <resource>
   <Organization>
    <id value="b945154b-114f-4da3-98fb-7f6978083e9b"/>
    <meta>
     <profile value="https://fhir.hl7.org.uk/STU3/StructureDefinition/CareConnect-Organization-1"/>
    </meta>
    <type>
     <coding>
      <system value="http://hl7.org/fhir/organization-type"/>
      <code value="prov"/>
      <display value="Healthcare Provider"/>
     </coding>
    </type>
    <name value="Company X"/>
    <telecom>
     <system value="phone"/>
     <value value="01234 956588"/>
     <use value="work"/>
    </telecom>
    <telecom>
     <system value="email"/>
     <value value="Admin@CompanyX.co.uk"/>
    </telecom>
    <address>
     <use value="work"/>
     <line value="20 Allred Street"/>
     <city value="Donaldstown"/>
     <postalCode value="DO6 7PL "/>
    </address>
   </Organization>
  </resource>
 </entry>
   <!--Organization-Example-5-->
 <entry>
  <fullUrl value="urn:uuid:f93186cd-b628-47e6-b97f-102ae75e6845"/>
  <resource>
   <Organization>
    <id value="f93186cd-b628-47e6-b97f-102ae75e6845"/>
    <meta>
     <profile value="https://fhir.hl7.org.uk/STU3/StructureDefinition/CareConnect-Organization-1"/>
    </meta>
    <type>
     <coding>
      <system value="http://hl7.org/fhir/organization-type"/>
      <code value="prov"/>
      <display value="Healthcare Provider"/>
     </coding>
    </type>
    <name value="Donaldstown CCG"/>
    <telecom>
     <system value="phone"/>
     <value value="01234 956666"/>
     <use value="work"/>
    </telecom>
    <telecom>
     <system value="email"/>
     <value value="Admin@donaldstown.nhs.uk"/>
    </telecom>
    <address>
     <use value="work"/>
     <line value="20 Town Street"/>
     <city value="Donaldstown"/>
     <postalCode value="DO6 7XD "/>
    </address>
   </Organization>
  </resource>
 </entry>
  <entry>
  <fullUrl value="urn:uuid:68c6b037-e5e5-4fd5-a401-86dea9a9c126"/>
  <resource>
   <Location>
    <id value="68c6b037-e5e5-4fd5-a401-86dea9a9c126"/>
    <meta>
     <profile value="https://fhir.hl7.org.uk/STU3/StructureDefinition/CareConnect-Location-1"/>
    </meta>
    <name value="Community Nutrition and Dietetics Outpatient Clinic"/>
    <type>
     <coding>
      <system value="http://hl7.org/fhir/v3/RoleCode"/>
      <code value="OF"/>
      <display value="Outpatient facility"/>
     </coding>
    </type>
    <managingOrganization>
     <reference value="urn:uuid:f9f24f89-646b-4a19-a6b1-cabfa3b612e1"/>
    </managingOrganization>
   </Location>
  </resource>
 </entry>
</Bundle>
