<?xml version="1.0" encoding="UTF-8"?>
<!--This xml example is for illustrative purposes only and has not been clinically verified-->
<Bundle xmlns="http://hl7.org/fhir" xmlns:xsi="http://www.w3.org/2001/XMLSchema-instance" xsi:schemaLocation="http://hl7.org/fhir file:///C:/GitHubRepo/ITK-FHIR-Outpatient-Letter/schemas/bundle.xsd">
	<id value="6191cc21-cb11-4d99-8cb2-2afe1c7e9d2f"/>
	<meta>
		<profile value="https://fhir.nhs.uk/StructureDefinition/cofe-document-bundle-1"/>
	</meta>
	<type value="document"/>
	<!--Outpatient Letter Composition-->
	<entry>
		<fullUrl value="urn:uuid:95ab3b52-b229-43db-a919-fa09db5e08d3"/>
		<resource>
			<Composition>
				<id value="95ab3b52-b229-43db-a919-fa09db5e08d3"/>
				<meta>
					<profile value="https://fhir.nhs.uk/StructureDefinition/cofe-opl-composition-1"/>
				</meta>
				

				<!-- Information Recipient 1 -->
				<extension url="https://fhir.nhs.uk/StructureDefinition/extension-cofe-information-recipient-1">
					<valueReference>
						<reference value="urn:uuid:5e414a77-d394-4248-a631-00e45ddb64a0"/>
						<display value="O`REILLY, C (Dr)"/>
					</valueReference>
				</extension>				
				<!-- Care Setting Type -->
				<extension url="https://fhir.nhs.uk/StructureDefinition/extension-cofe-care-setting-type-1">
					<valueCodeableConcept>
						<coding>
							<system value="http://snomed.info/sct"/>
							<code value="722164000"/>
							<display value="Dietetics and nutrition"/>
						</coding>
					</valueCodeableConcept>
				</extension>		
				<identifier>
					<value id="2b5d459b-df79-4a2b-9b0c-95b2a7ee2ca4"/>
				</identifier>
				<date value="2015-02-17T10:00:00+00:00"/>
				<type>
					<!--Discharge Summary-->
					<coding>
						<system value="http://snomed.info/sct"/>
						<code value="373942005"/>
						<display value="Discharge summary"/>
					</coding>
				</type>
				<title value="Discharge summary"/>
				<status value="final"/>
				<confidentiality value="V"/>
				<subject>
					<reference value="urn:uuid:31686b67-9f20-4644-9a54-193d2f91de57"/>
					<display value="LINACRE, Thomas (Mr)"/>
				</subject>
				<author>
					<reference value="urn:uuid:d25fd1c6-2658-4db7-9af0-86c5f95e8ec9"/>
				</author>
				<custodian>
					<reference value="urn:uuid:12bba528-a08a-448b-946b-7e8008044025"/>
					<display value="St Crispin’s Hospital"/>
				</custodian>
				<encounter>
					<reference value="urn:uuid:bd25f74e-2be5-4728-ac16-4771e2998cd2"/>
					<display value="Medical consultation on hospital inpatient"/>
				</encounter>		

	
			</Composition>		
		</resource>
	</entry>

	<!--Encounter Example 1-->
	<entry>
		<fullUrl value="urn:uuid:bd25f74e-2be5-4728-ac16-4771e2998cd2"/>
		<resource>
			<Encounter>
				<id value="bd25f74e-2be5-4728-ac16-4771e2998cd2"/>
				<meta>
					<profile value="https://fhir.hl7.org.uk/StructureDefinition/CareConnect-Encounter-1"/>
				</meta>
				<identifier>
					<system value="https://tools.ietf.org/html/rfc4122"/>
					<value value="13c73015-d8fa-4844-8d68-4f856883eca8"/>
				</identifier>
				<status value="finished"/>
				<class value="inpatient"/>
				<type>
					<coding>
						<system value="http://snomed.info/sct"/>
						<code value="24882007"/>
						<display value="Medical consultation on hospital inpatient"/>
					</coding>
				</type>
				<patient>
					<reference value="urn:uuid:31686b67-9f20-4644-9a54-193d2f91de57"/>
					<display value="LINACRE, Thomas (Mr)"/>
				</patient>
				<period>
					<start value="2017-05-01T09:00:00+00:00"/>
					<end value="2017-05-01T09:00:00+00:00"/>
				</period>
				<hospitalization>
					<admitSource>
						<coding>
							<system value="http://hl7.org/fhir/admit-source"/>
							<code value="gp"/>
							<display value="General Practitioner referral"/>
						</coding>
					</admitSource>
					<admittingDiagnosis>
						<reference value="urn:uuid:6b639186-a9cd-43b0-9880-9ddb7902b934"/>
						<display value="Stroke"/>
					</admittingDiagnosis>
					<dischargeDisposition>
						<coding>
							<system value="http://hl7.org/fhir/discharge-disposition"/>
							<code value="home"/>
							<display value="Home"/>
						</coding>
					</dischargeDisposition>
					<dischargeDiagnosis>
						<reference value="urn:uuid:8197e5be-1483-48e6-bf30-842f5184d4cf"/>
						<display value="Stroke"/>
					</dischargeDiagnosis>
				</hospitalization>
				<location>
					<location>
						<reference value="urn:uuid:01bb1ccc-577b-4a4a-9fb0-9c8fe9f21fa3"/>
						<display value="Hospital"/>
					</location>
				</location>
			</Encounter>
		</resource>
	</entry>	
		<!--Diagnoses 1-->
	<entry>
		<fullUrl value="urn:uuid:abbf4c46-f97b-4b04-9248-4f99a21e1879"/>
		<resource>
			<Condition>
				<id value="5590e1f9-c85b-4e14-be4c-efb6aa693fa5"/>
				<meta>
					<profile value="https://fhir.hl7.org.uk/StructureDefinition/CareConnect-Condition-1"/>
				</meta>
				<identifier>
					<system value="https://tools.ietf.org/html/rfc4122"/>
					<value value="c4b2d64e-23f3-4055-8299-141aacf9c16c"/>
				</identifier>
				<patient>
					<reference value="urn:uuid:31686b67-9f20-4644-9a54-193d2f91de57"/>
					<display value="LINACRE, Thomas (Mr)"/>
				</patient>
				<encounter>
					<reference value="urn:uuid:bd25f74e-2be5-4728-ac16-4771e2998cd2"/>
				</encounter>
				<asserter>
					<reference value="urn:uuid:5e414a77-d394-4248-a631-00e45ddb64a0"/>
						<display value="O`REILLY, C (Dr)"/>
				</asserter>
				<dateRecorded value="2017-05-16"/>
				<code>
					<coding>
						<system value="http://snomed.info/sct"/>
						<code value="230690007"/>
						<display value="Stroke"/>
					</coding>
				</code>
				<category>
					<coding>
						<system value="https://fhir.hl7.org.uk/CareConnect-ConditionCategory-1"/>
						<code value="diagnosis"/>
						<display value="Diagnosis"/>
					</coding>
				</category>
				<clinicalStatus value="active"/>
				<verificationStatus value="confirmed"/>
			</Condition>
		</resource>
	</entry>
			<!--Examination observation 1-->
<entry>
	<fullUrl value="urn:uuid:3beb965d-6ba3-4731-b702-4f701affd73b"/>
	<resource>	
		<Observation>
		<id value="3beb965d-6ba3-4731-b702-4f701affd73b"/>
		<meta>
		<!--Identifies the profile being used-->
		<profile value="https://fhir.hl7.org.uk/StructureDefinition/CareConnect-Observation-1"/>
		</meta>
		<identifier>
			<system value="https://tools.ietf.org/html/rfc4122"/>
			<value value="c9304f01-ec24-4e0d-a64f-ce4e67473e6a"/>
		</identifier>
		<status value="final"/>
		<code>
			<coding>
				<system value="http://snomed.info/sct"/>
				<code value="302199004"/>
				<display value="Examination"/>
			</coding>
		</code>
		<subject>
			<reference value="urn:uuid:31686b67-9f20-4644-9a54-193d2f91de57"/>
			<display value="LINACRE, Thomas (Mr)"/>
		</subject>
		<effectiveDateTime value="2016-01-02T08:39:16+00:00"/>
		<performer>
			<reference value="urn:uuid:5e414a77-d394-4248-a631-00e45ddb64a0"/>
			<display value="O`REILLY, C (Dr)"/>
		</performer>
		<comments value="Weight 80kg, Height 175cm, BMI 26cm/2,"/>
		</Observation>	
	</resource>
	</entry>
			<!--history observation 1-->
<entry>
	<fullUrl value="urn:uuid:435a6755-5664-43f0-9472-8b62f1381568"/>
	<resource>	
		<Observation>
		<id value="435a6755-5664-43f0-9472-8b62f1381568"/>
		<meta>
		<!--Identifies the profile being used-->
		<profile value="https://fhir.hl7.org.uk/StructureDefinition/CareConnect-Observation-1"/>
		</meta>
		<identifier>
			<system value="https://tools.ietf.org/html/rfc4122"/>
			<value value="a57585f4-eba9-443f-8eb9-ab69702ee1ee"/>
		</identifier>
		<status value="final"/>
		<code>
			<coding>
				<system value="http://snomed.info/sct"/>
				<code value="717121000000105"/>
				<display value="History"/>
			</coding>
		</code>
		<subject>
			<reference value="urn:uuid:31686b67-9f20-4644-9a54-193d2f91de57"/>
			<display value="LINACRE, Thomas (Mr)"/>
		</subject>
		<effectiveDateTime value="2016-01-02T08:39:16+00:00"/>
		<performer>
			<reference value="urn:uuid:5e414a77-d394-4248-a631-00e45ddb64a0"/>
			<display value="O`REILLY, C (Dr)"/>
		</performer>
		<comments value="Mr. Linacre attended the community nutrition and dietetics outpatient clinic for review of feeding. Following a stroke Mr. Linacre acquired swallowing difficulties. During a recent admission to hospital Mr. Linacre was established on PEG tube feeding. The feeding tube insitu is a 15French PEG tube placed 05/04/17. The regimen being: 1000mls Energy Multifibre Feed at 100mls/hours for 10 hours (9am-7pm) with 1400mls water given as divided flushes (e.g. 10x140mls) throughout the day e.g. before and after feed and with medications.  His weight is stable."/>
		</Observation>	
	</resource>
	</entry>
				<!--Medication List Example 1-->
	<entry>
		<fullUrl value="urn:uuid:cef7f8d5-78e3-4866-89f1-62470d6fd636"/>
		<resource>
			<List>
				<id value="cef7f8d5-78e3-4866-89f1-62470d6fd636"/>
				<meta>
					<profile value="https://fhir.nhs.uk/StructureDefinition/COFE-Medication-List-1"/>
				</meta>
				<identifier>
					<system value="https://tools.ietf.org/html/rfc4122"/>
					<value value="c28e33b7-dd29-4c9d-957c-ab4a834e5e77"/>
				</identifier>
				<code>
					<coding>
						<system value="http://hl7.org/fhir/list-example-use-codes"/>
						<code value="medications"/>
						<display value="Medication List"/>
					</coding>
				</code>
				<subject>
					<reference value="urn:uuid:31686b67-9f20-4644-9a54-193d2f91de57"/>
					<display value="LINACRE, Thomas (Mr)"/>
				</subject>
				<status value="current"/>
				<mode value="snapshot"/>
				<entry>
					<flag>
						<coding>
							<system value="https://fhir.nhs.uk/medication-list-flag-code-1"/>
							<code value="08"/>
							<display value="Active"/>
						</coding>
					</flag>
					<item>
						<reference value="urn:uuid:11baa8fd-b670-47d1-ab3a-183488af5c6e"/>
					</item>
				</entry>
			</List>
		</resource>
	</entry>
			<!--Medication Statement Example 1-->
	<entry>
		<fullUrl value="urn:uuid:11baa8fd-b670-47d1-ab3a-183488af5c6e"/>
		<resource>
			<MedicationStatement>
				<id value="11baa8fd-b670-47d1-ab3a-183488af5c6e"/>
				<meta>
					<profile value="https://fhir.hl7.org.uk/StructureDefinition/CareConnect-MedicationStatement-1"/>
				</meta>
<!--			<extension url="https://fhir.hl7.org.uk/StructureDefinition/Extension-CareConnect-MedicationFlag-1">
					<valueReference>
						<reference value="urn:uuid:f7fba03d-ea84-4849-b059-dee82cfd4f46"/> --><!--this ref will cause validator to crash is urn:uuid suffix added. entry 6--><!--
					</valueReference>
				</extension>-->
				<patient>
					<reference value="urn:uuid:31686b67-9f20-4644-9a54-193d2f91de57"/>
					<display value="LINACRE, Thomas (Mr)"/>
				</patient>
				<status value="active"/>
				<medicationReference>
					<reference value="urn:uuid:46c1a1b6-c2a5-44bc-a0df-80db5d4fb423"/>
					<display value="Enteral+supplement feeds"/>
				</medicationReference>
			<dosage>
					<text value="100ml a day"/>		
					<asNeededBoolean value="false"/>
					<route>
						<coding>
							<system value="http://snomed.info/sct"/>
							<code value="225373002"/>
							<display value="Percutaneous endoscopic gastrostomy feeding"/>
						</coding>
					</route>
					<quantityQuantity>
						<value value="10"/>
					</quantityQuantity>
					<maxDosePerPeriod>
						<numerator>
							<value value="10"/>
							<unit value="ml"/>
							<system value="http://snomed.info/sct"/>
							<code value="255765007"/>
						</numerator>
						<denominator>
							<value value="100"/>
							<system value="http://unitsofmeasure.org"/>
							<code value="d"/>
						</denominator>
					</maxDosePerPeriod>
				</dosage>
			</MedicationStatement>
		</resource>
	</entry>
			<!--Medication Example 1-->
	<entry>
		<fullUrl value="urn:uuid:46c1a1b6-c2a5-44bc-a0df-80db5d4fb423"/>
		<resource>
			<Medication>
				<id value="46c1a1b6-c2a5-44bc-a0df-80db5d4fb423"/>
				<meta>
					<profile value="https://fhir.hl7.org.uk/StructureDefinition/CareConnect-Medication-1"/>
				</meta>
				<code>
					<coding>
						<system value="http://snomed.info/sct"/>
						<code value="346415002"/>
						<display value="Enteral+supplement feeds"/>
					</coding>
				</code>
			</Medication>
		</resource>
	</entry>
				<!--Medication Flag Example 1-->
	<entry>
		<fullUrl value="urn:uuid:f7fba03d-ea84-4849-b059-dee82cfd4f46"/>
		<resource>
			<Flag>
				<id value="f7fba03d-ea84-4849-b059-dee82cfd4f46"/>
				<meta>
					<profile value="https://fhir.hl7.org.uk/StructureDefinition/CareConnect-Medication-Flag-1"/>
				</meta>
				<extension url="https://fhir.hl7.org.uk/StructureDefinition/Extension-CareConnect-MedicationFlagAssociation-1">
					<valueReference>
						<reference value="urn:uuid:11baa8fd-b670-47d1-ab3a-183488af5c6e"/>
					</valueReference>
				</extension>
				<identifier>
					<system value="https://tools.ietf.org/html/rfc4122"/>
					<value value="76ef531e-d072-4f62-8c78-e16b35c188c8"/>
				</identifier>
				<category>
					<coding>
						<system value="http://hl7.org/fhir/flag-category"/>
						<code value="drug"/>
						<display value="Drug"/>
					</coding>
				</category>
				<status value="active"/>
				<subject>
					<reference value="urn:uuid:31686b67-9f20-4644-9a54-193d2f91de57"/>
					<display value="LINACRE, Thomas (Mr)"/>
				</subject>
				<code>
					<coding>
						<system value="https://fhir.hl7.org.uk/CareConnect-MedicationFlag-1"/>
						<code value="continue-indefinitely"/>
						<display value="Continue Indefinitely"/>
					</coding>
				</code>
			</Flag>
		</resource>
	</entry>
	<!--Patient-Example-1-->
	<entry>
		<fullUrl value="urn:uuid:31686b67-9f20-4644-9a54-193d2f91de57"/>
		<resource>
			<Patient>
				<id value="31686b67-9f20-4644-9a54-193d2f91de57"/>
				<meta>
					<profile value="https://fhir.hl7.org.uk/StructureDefinition/CareConnect-Patient-1"/>
				</meta>
				<extension url="https://fhir.hl7.org.uk/StructureDefinition/Extension-CareConnect-EthnicCategory-1">
					<valueCodeableConcept>
						<coding>
							<system value="https://fhir.hl7.org.uk/CareConnect-EthnicCategory-1"/>
							<code value="A"/>
							<display value="British, Mixed British"/>
						</coding>
					</valueCodeableConcept>
				</extension>
				<extension url="https://fhir.hl7.org.uk/StructureDefinition/Extension-CareConnect-ReligiousAffiliation-1">
					<valueCodeableConcept>
						<coding>
							<system value="http://snomed.info/sct"/>
							<code value="80587008"/>
							<display value="Jehovah's Witness"/>
						</coding>
					</valueCodeableConcept>
				</extension>
				<extension url="http://hl7.org/fhir/StructureDefinition/patient-cadavericDonor">
					<valueBoolean value="false"/>
				</extension>
				<extension url="https://fhir.hl7.org.uk/StructureDefinition/Extension-CareConnect-ResidentialStatus-1">
					<valueCodeableConcept>
						<coding>
							<system value="https://fhir.hl7.org.uk/CareConnect-ResidentialStatus-1"/>
							<code value="H"/>
							<display value="UK Resident"/>
						</coding>
					</valueCodeableConcept>
				</extension>
				<extension url="https://fhir.hl7.org.uk/StructureDefinition/Extension-CareConnect-TreatmentCategory-1">
					<valueCodeableConcept>
						<coding>
							<system value="https://fhir.hl7.org.uk/CareConnect-TreatmentCategory-1"/>
							<code value="8"/>
							<display value="Not applicable"/>
						</coding>
					</valueCodeableConcept>
				</extension>
				<extension url="https://fhir.hl7.org.uk/StructureDefinition/Extension-CareConnect-NHSCommunication-1">
					<extension url="language">
						<valueCodeableConcept>
							<coding>
								<system value="https://fhir.hl7.org.uk/CareConnect-HumanLanguage-1"/>
								<code value="en"/>
								<display value="English"/>
							</coding>
						</valueCodeableConcept>
					</extension>
					<extension url="preferred">
						<valueBoolean value="true"/>
					</extension>
					<extension url="modeOfCommunication">
						<valueCodeableConcept>
							<coding>
								<system value="https://fhir.hl7.org.uk/CareConnect-LanguageAbilityMode-1"/>
								<code value="ESP"/>
								<display value="Expressed spoken"/>
							</coding>
						</valueCodeableConcept>
					</extension>
					<extension url="modeOfCommunication">
						<valueCodeableConcept>
							<coding>
								<system value="https://fhir.hl7.org.uk/CareConnect-LanguageAbilityMode-1"/>
								<code value="RWR"/>
								<display value="Received written"/>
							</coding>
						</valueCodeableConcept>
					</extension>
					<extension url="communicationProficiency">
						<valueCodeableConcept>
							<coding>
								<system value="https://fhir.hl7.org.uk/CareConnect-LanguageAbilityProficiency-1"/>
								<code value="E"/>
								<display value="Excellent"/>
							</coding>
						</valueCodeableConcept>
					</extension>
					<extension url="interpreterRequired">
						<valueBoolean value="false"/>
					</extension>
				</extension>
				<identifier>
					<extension url="https://fhir.hl7.org.uk/StructureDefinition/Extension-CareConnect-NHSNumberVerificationStatus-1">
						<valueCodeableConcept>
							<coding>
								<system value="https://fhir.hl7.org.uk/CareConnect-NHSNumberVerificationStatus-1"/>
								<code value="01"/>
								<display value="Number present and verified"/>
							</coding>
						</valueCodeableConcept>
					</extension>
					<system value="https://fhir.nhs.uk/Id/nhs-number"/>
					<value value="61033451188"/>
				</identifier>
				<active value="true"/>
				<name>
					<use value="usual"/>
					<family value="Linacre"/>
					<given value="Thomas"/>
					<prefix value="Mr"/>
				</name>
					<telecom>
					<system value="phone"/>
					<value value="077 7777 777"/>
					<use value="mobile"/>
				</telecom>
				<telecom>
					<system value="email"/>
					<value value="thomas@linacre.net"/>
					<use value="home"/>
				</telecom>
				<gender value="male"/>
				<birthDate value="1960-01-01"/>
				<address>
					<use value="home"/>
					<line value="29 Acacia Road"/>
					<postalCode value="BM9 6PL"/>
				</address>
				<careProvider>
					<reference value="urn:uuid:f9f24f89-646b-4a19-a6b1-cabfa3b612e1"/>
					<display value="Canvas Health Centre"/>
				</careProvider>
			</Patient>
		</resource>
	</entry>
		<!--Practitioner-Example-2-->
	<entry>
		<fullUrl value="urn:uuid:5e414a77-d394-4248-a631-00e45ddb64a0"/>
		<resource>
			<Practitioner>
				<id value="5e414a77-d394-4248-a631-00e45ddb64a0"/>
				<meta>
					<profile value="https://fhir.hl7.org.uk/StructureDefinition/CareConnect-Practitioner-1"/>
				</meta>
				<identifier>
					<system value="https://fhir.nhs.uk/Id/sds-user-id"/>
					<value value="GP12345600"/>
				</identifier>
				<name>
					<family value="O`Reilly"/>
					<given value="C"/>
					<prefix value="Dr"/>
				</name>
				<telecom>
						<system value="phone"/>
						<value value="01234 562987"/>
						<use value="work"/>
				</telecom>
				<practitionerRole>
					<managingOrganization>
						<reference value="urn:uuid:f9f24f89-646b-4a19-a6b1-cabfa3b612e1"/>
						<display value="Canvas Health Centre"/>
					</managingOrganization>
					<role>
						<coding>
							<system value="https://fhir.hl7.org.uk/CareConnect-SDSJobRoleName-1"/>
							<code value="R0260"/>
							<display value="General Medical Practitioner"/>
						</coding>
					</role>
				</practitionerRole>
			</Practitioner>
		</resource>
	</entry>
		<!--Practitioner-Example-3-->
		<entry>
		<fullUrl value="urn:uuid:d25fd1c6-2658-4db7-9af0-86c5f95e8ec9"/>
		<resource>
			<Practitioner>
				<id value="d25fd1c6-2658-4db7-9af0-86c5f95e8ec9"/>
				<meta>
					<profile value="https://fhir.hl7.org.uk/StructureDefinition/CareConnect-Practitioner-1"/>
				</meta>
				<name>
					<family value="O`casey"/>
					<given value="Shauna"/>
					<prefix value="Dr"/>
				</name>
				<address>
					<line value="St Crispin’s Hospital"/>
					<line value="General Plastic Surgery Clinic"/>
					<city value="Donaldstown"/>
					<postalCode value="DO5 7TP"/>
				</address>
				<practitionerRole>
					<managingOrganization>
						<reference value="urn:uuid:e1580b71-99bd-4c5b-8d54-9b420418135f"/>
						<display value="St Crispin’s Hospital"/>
					</managingOrganization>
					<role>
						<coding>
							<system value="https://fhir.hl7.org.uk/CareConnect-SDSJobRoleName-1"/>
							<code value="R0050"/>
							<display value="Consultant"/>
						</coding>
					</role>
				</practitionerRole>
			</Practitioner>
		</resource>
	</entry>
				<!--Organization-Example-1-->
	<entry>
		<fullUrl value="urn:uuid:f9f24f89-646b-4a19-a6b1-cabfa3b612e1"/>
		<resource>
			<Organization>
				<id value="f9f24f89-646b-4a19-a6b1-cabfa3b612e1"/>
				<meta>
					<profile value="https://fhir.hl7.org.uk/StructureDefinition/CareConnect-Organization-1"/>
				</meta>
				<identifier>
					<system value="https://fhir.nhs.uk/Id/ods-organization-code"/>
					<value value="A111111"/>
				</identifier>
				<type>
					<coding>
						<system value="http://hl7.org/fhir/organization-type"/>
						<code value="prov"/>
						<display value="Healthcare Provider"/>
					</coding>
				</type>
				<name value="Canvas Health Centre"/>
				<telecom>
					<system value="phone"/>
					<value value="01234 956412"/>
					<use value="work"/>
				</telecom>
				<telecom>
					<system value="email"/>
					<value value="Admin@MMC.co.uk"/>
				</telecom>
				<address>
					<use value="work"/>
					<line value="27 Acacia Road"/>
					<line value="BM9 6PM "/>
				</address>
			</Organization>
		</resource>
	</entry>

		<!--Organization-Example-2-->
	<entry>
		<fullUrl value="urn:uuid:12bba528-a08a-448b-946b-7e8008044025"/>
		<resource>
			<Organization>
				<id value="12bba528-a08a-448b-946b-7e8008044025"/>
				<meta>
					<profile value="https://fhir.hl7.org.uk/StructureDefinition/CareConnect-Organization-1"/>
				</meta>
				<identifier>
					<system value="https://fhir.nhs.uk/Id/ods-organization-code"/>
					<value value="RR8"/>
				</identifier>
				<type>
					<coding>
						<system value="http://hl7.org/fhir/organization-type"/>
						<code value="prov"/>
						<display value="Healthcare Provider"/>
					</coding>
				</type>
				<name value="St Crispin’s Hospital"/>
				<telecom>
					<system value="phone"/>
					<value value="01234 567890"/>
					<use value="work"/>
				</telecom>
				<address>
					<line value="St Crispin’s Hospital"/>
					<line value="Department of Palliative Medicine"/>
					<line value="Donaldstown"/>
					<postalCode value="DO5 7TP"/>
				</address>
			</Organization>
		</resource>
	</entry>
			<!--Location-Example-1-->
	<entry>
		<fullUrl value="urn:uuid:01bb1ccc-577b-4a4a-9fb0-9c8fe9f21fa3"/>
		<resource>
			<Location>
				<id value="01bb1ccc-577b-4a4a-9fb0-9c8fe9f21fa3"/>
				<meta>
					<profile value="https://fhir.hl7.org.uk/StructureDefinition/CareConnect-Location-1"/>
				</meta>
				<name value="Adobe Health Centre"/>
				<type>
					<coding>
						<system value="http://hl7.org/fhir/v3/RoleCode"/>
						<code value="HOSP"/>
						<display value="Hospital"/>
					</coding>
				</type>
			</Location>
		</resource>
	</entry>
</Bundle>
