<?xml version="1.0" encoding="UTF-8"?>
<!--Sample XML file generated by XMLSpy v2017 sp2 (http://www.altova.com)-->
<Bundle xmlns="http://hl7.org/fhir" xmlns:xsi="http://www.w3.org/2001/XMLSchema-instance" xsi:schemaLocation="http://hl7.org/fhir ../../Schemas/bundle.xsd">
	<id value="6191cc21-cb11-4d99-8cb2-2afe1c7e9d2f"/>
	<meta>
		<profile value="https://fhir.nhs.uk/StructureDefinition/cofe-document-bundle-1"/>
	</meta>
	<type value="document"/>
	<!--Outpatient Letter Composition-->
	<entry>
		<fullUrl value="urn:uuid:95ab3b52-b229-43db-a919-fa09db5e08d3"/>
		<resource>
			<Composition>
				<id value="95ab3b52-b229-43db-a919-fa09db5e08d3"/>
				<meta>
					<profile value="https://fhir.nhs.uk/StructureDefinition/cofe-opl-composition-1"/>
				</meta>
				<!-- Information Recipient 2 -->
				<extension url="https://fhir.nhs.uk/StructureDefinition/extension-cofe-information-recipient-1">
					<valueReference>
						<reference value="5e414a77-d394-4248-a631-00e45ddb64a0"/>
						<display value="O`REILLY, C (Dr)"/>
					</valueReference>
				</extension>				
				<!-- Care Setting Type -->
				<extension url="https://fhir.nhs.uk/StructureDefinition/extension-cofe-care-setting-type-1">
					<valueCodeableConcept>
						<coding>
							<system value="http://snomed.info/sct"/>
							<code value="310160007"/>
							<display value="Ophthalmology service"/>
						</coding>
					</valueCodeableConcept>
				</extension>
				
				<identifier>
					<value id="2b5d459b-df79-4a2b-9b0c-95b2a7ee2ca4"/>
				</identifier>
				<date value="2015-02-17T10:00:00+00:00"/>
				<type>
					<!--Discharge Summary-->
					<coding>
						<system value="http://snomed.info/sct"/>
						<code value="373942005"/>
						<display value="Discharge summary"/>
					</coding>
				</type>
				<title value="Discharge summary"/>
				<status value="final"/>
				<confidentiality value="V"/>
				<subject>
					<reference value="31686b67-9f20-4644-9a54-193d2f91de57"/>
					<display value="PERRIN, Reginald (Mr)"/>
				</subject>
				<author>
					<reference value="urn:uuid:052703f9-529f-4656-a398-24a16a0fb1e0"/>
					<display value="RIGSBY, Rupert (Mr)"/>
				</author>
				<custodian>
					<reference value="urn:uuid:12bba528-a08a-448b-946b-7e8008044025"/>
					<display value="St Crispin’s Hospital"/>
				</custodian>
				<encounter>
					<reference value="urn:uuid:3c326150-d8a2-44f5-96fc-1f727b28eb76"/>
					<display value="Medical consultation on hospital inpatient"/>
				</encounter>		
				<!--Attendance details section-->	
				<section>
					<title value="Attendance details section"/>
					<code>
						<coding>
							<system value="http://snomed.info/sct"/>
							<code value="886811000000106"/>
							<display value="Attendance details section"/>
						</coding>
					</code>
					<text>
						<status value="generated"/>
						<div xmlns="http://www.w3.org/1999/xhtml">
							<table width="100%">
								<tbody>
									<tr>
										<th>Date of encounter</th>
										<td>19/05/2017</td>
									</tr>
									<tr>
										<th>Contact type</th>
										<td>First attendance</td>
									</tr>
									<tr>
										<th>Consultation method</th>
										<td>Face-to-face</td>
									</tr>
									<tr>
										<th>Seen by</th>
										<td>Rupert Rigsby, Orthoptist<br/></td>
									</tr>
									<tr>
										<td></td>
										<td>(01234) 569879</td>
									</tr>
									<tr>
											<th>Outcome</th>
											<td>Discharged (referred to ophthalmologist) </td>
									</tr>
								</tbody>
							</table>
						</div>
					</text>
					<orderedBy>
						<coding>
							<system value="http://hl7.org/fhir/list-order"/>
							<code value="system"/>
							<display value="Sorted by System"/>
						</coding>
					</orderedBy>
				</section>					
				<!--Allergies and adverse reactions-->
				<section>
					<title value="Allergies and adverse reactions"/>
					<code>
						<coding>
							<system value="http://snomed.info/sct"/>
							<code value="886921000000105"/>
							<display value="Allergies and adverse reactions"/>
						</coding>
					</code>
					<text>
						<status value="generated"/>
						<div xmlns="http://www.w3.org/1999/xhtml">
							<table width="100%">
								<tbody>
								<tr>
									<th align="left">Allergies and adverse reactions</th>
								</tr>
									<tr>
										<td>No known allergies or adverse reactions</td>
										</tr>
								</tbody>
							</table>
						</div>
					</text>
					<orderedBy>
						<coding>
							<system value="http://hl7.org/fhir/list-order"/>
							<code value="system"/>
							<display value="Sorted by System"/>
						</coding>
					</orderedBy>
				</section>
				<!--Clinical summary-->
				<section>
					<title value="Clinical summary"/>
					<code>
						<coding>
							<system value="http://snomed.info/sct"/>
							<code value="887181000000106"/>
							<display value="Clinical summary"/>
						</coding>
					</code>
					<text>
						<status value="generated"/>
						<div xmlns="http://www.w3.org/1999/xhtml">
							<table width="100%">
								<tbody>
									<tr>
										<th>Clinical Summary</th>
									</tr>
									<tr>
										<td>Referred from the head injury team as patient experiencing diplopia. Diagnosed with a right IV nerve palsy. Fitted a prism on patients glasses to relieve diplopia.</td>
									</tr>
								</tbody>
							</table>
						</div>
					</text>
				</section>
				<!--Diagnoses-->
				<section>
					<title value="Diagnoses"/>
					<code>
						<coding>
							<system value="http://snomed.info/sct"/>
							<code value="887161000000102"/>
							<display value="Diagnoses"/>
						</coding>
					</code>
					<text>
						<status value="generated"/>
						<div xmlns="http://www.w3.org/1999/xhtml">
					
							<br/>
						<table style="color:#000000;" width="55%" border="0">
								<tbody>
									<tr>
										<th align="left">Diagnosis</th>
									</tr>
									<tr>
										<td>Right IV cranial nerve palsy</td>						
									</tr>					
								</tbody>
							</table>
							<br/>
							<p>I had the pleasure of meeting Mr. Perrin in the orthoptic outpatient clinic today, referred by Michael McMonagle, Occupational Therapist, Head Injury Team, St Crispin’s Hospital, Donaldstown, DO5 7TP</p>
							<br/>
						</div>
					</text>
					<orderedBy>
						<coding>
							<system value="http://hl7.org/fhir/list-order"/>
							<code value="system"/>
							<display value="Sorted by System"/>
						</coding>
					</orderedBy>
			<!--		<entry>
						<reference value="urn:uuid:8197e5be-1483-48e6-bf30-842f5184d4cf"/>
						<display value="Legion on forearm"/>
					</entry>
					<entry>
						<reference value="urn:uuid:84a8fe59-7b83-4eae-a40b-170ed685524f"/>
						<display value="Hypertension"/>
					</entry>-->
				</section>												
				<!--Plan and requested actions-->
				<section>
					<title value="Plan and requested actions"/>
					<code>
						<coding>
							<system value="http://snomed.info/sct"/>
							<code value="887201000000105"/>
							<display value="Plan and requested actions"/>
						</coding>
					</code>
					<text>
						<status value="generated"/>
						<div xmlns="http://www.w3.org/1999/xhtml">
							<table width="100%">
								<tbody>
								<tr>
									<th align="left">Plan and requested actions for healthcare professionals</th>
								</tr>			
									<tr>
										<td>Referred to ophthalmologist by Rupert Rigsby on 19/05/17.</td>
									</tr>
									<tr>
									<th align="left">Plan and requested actions for patient</th>
								</tr>			
									<tr>
										<td>Patient has been advised to inform the DVLA regarding the diplopia and fresnel prism</td>
									</tr>
								</tbody>
							</table>						
						</div>
					</text>
				</section>
				<!--Examiniation findings-->
				<section>
					<title value="Examination finding"/>
					<code>
						<coding>
							<system value="http://snomed.info/sct"/>
							<code value="715851000000102"/>
							<display value="Examination findings"/>
						</coding>
					</code>
					<text>
						<status value="generated"/>
						<div xmlns="http://www.w3.org/1999/xhtml">
							<table width="50%">
								<tbody>
									<tr>
										<th align="left">Examiniation finding</th>
									</tr>
									<tr>
									<td>Ocular mobility testing</td>
										<td>Right hypertropia</td>
									</tr>
								</tbody>
							</table>
						</div>
					</text>
				</section>
				<!--History-->
				<section>
					<title value="History"/>
					<code>
						<coding>
							<system value="http://snomed.info/sct"/>
							<code value="717121000000105"/>
							<display value="History"/>
						</coding>
					</code>
					<text>
						<status value="generated"/>
						<div xmlns="http://www.w3.org/1999/xhtml">
							<table width="100%">
								<tbody>
									<tr>
										<th align="left">History</th>
									</tr>
									<tr>
										<td>Diplopia and ocular mobility defect</td>
									</tr>
								</tbody>
							</table>
						</div>
					</text>
				</section>		
				<!--Procedure-->
				<section>
					<title value="Procedures"/>
					<code>
						<coding>
							<system value="http://snomed.info/sct"/>
							<code value="887171000000109"/>
							<display value="Procedures"/>
						</coding>
					</code>
					<text>
						<status value="generated"/>
						<div xmlns="http://www.w3.org/1999/xhtml">
							<table width="100%">
								<tbody>
									<tr>
										<th align="left">Procedure</th>
									</tr>
									<tr>
										<td>Fitted a prism on patient’s glasses (right side)</td>
									</tr>
								</tbody>
							</table>
						</div>
					</text>
				</section>
			</Composition>		
		</resource>
	</entry>
	<!--Encounter Example 1-->
	<entry>
		<fullUrl value="urn:uuid:3c326150-d8a2-44f5-96fc-1f727b28eb76"/>
		<resource>
			<Encounter>
				<id value="3c326150-d8a2-44f5-96fc-1f727b28eb76"/>
				<meta>
					<profile value="https://fhir.hl7.org.uk/StructureDefinition/CareConnect-Encounter-1"/>
				</meta>
				<identifier>
					<system value="https://tools.ietf.org/html/rfc4122"/>
					<value value="13c73015-d8fa-4844-8d68-4f856883eca8"/>
				</identifier>
				<status value="finished"/>
				<class value="inpatient"/>
				<type>
					<coding>
						<system value="http://snomed.info/sct"/>
						<code value="24882007"/>
						<display value="Medical consultation on hospital inpatient"/>
					</coding>
				</type>
				<patient>
					<reference value="urn:uuid:31686b67-9f20-4644-9a54-193d2f91de57"/>
					<display value="PERRIN, Reginald (Mr)"/>
				</patient>
				<period>
					<start value="2017-05-19T09:00:00+00:00"/>
					<end value="2017-05-19T09:00:00+00:00"/>
				</period>
				<hospitalization>
					<admitSource>
						<coding>
							<system value="http://hl7.org/fhir/admit-source"/>
							<code value="gp"/>
							<display value="General Practitioner referral"/>
						</coding>
					</admitSource>
					<dischargeDisposition>
						<coding>
							<system value="http://hl7.org/fhir/discharge-disposition"/>
							<code value="home"/>
							<display value="Home"/>
						</coding>
					</dischargeDisposition>
					<dischargeDiagnosis>
						<reference value="urn:uuid:8197e5be-1483-48e6-bf30-842f5184d4cf"/>
						<display value="Right IV cranial nerve palsy"/>
					</dischargeDiagnosis>
				</hospitalization>
				<location>
					<location>
						<reference value="urn:uuid:01bb1ccc-577b-4a4a-9fb0-9c8fe9f21fa3"/>
						<display value="Hospital"/>
					</location>
				</location>
			</Encounter>
		</resource>
	</entry>
	<!--Diagnoses 1-->
	<entry>
		<fullUrl value="urn:uuid:0a1829b8-e950-47eb-8861-fbc904653409"/>
		<resource>
			<Condition>
				<id value="0a1829b8-e950-47eb-8861-fbc904653409"/>
				<meta>
					<profile value="https://fhir.hl7.org.uk/StructureDefinition/CareConnect-Condition-1"/>
				</meta>
				<identifier>
					<system value="https://tools.ietf.org/html/rfc4122"/>
					<value value="d49dfa84-1bb3-42f5-9d20-feebd67fd991"/>
				</identifier>
				<patient>
					<reference value="31686b67-9f20-4644-9a54-193d2f91de57"/>
					<display value="PERRIN, Reginald (Mr)"/>
				</patient>
				<encounter>
					<reference value="urn:uuid:3c326150-d8a2-44f5-96fc-1f727b28eb76"/>
				</encounter>
				<asserter>
					<reference value="5e414a77-d394-4248-a631-00e45ddb64a0"/>
						<display value="O`REILLY, C (Dr)"/>
				</asserter>
				<dateRecorded value="2017-05-16"/>
				<code>
					<coding>
						<system value="http://snomed.info/sct"/>
						<code value="20610004"/>
						<display value="Fourth cranial nerve palsy"/>
					</coding>
				</code>
				<category>
					<coding>
						<system value="https://fhir.hl7.org.uk/CareConnect-ConditionCategory-1"/>
						<code value="diagnosis"/>
						<display value="Diagnosis"/>
					</coding>
				</category>
				<clinicalStatus value="active"/>
				<verificationStatus value="confirmed"/>
				<onsetDateTime value="2015-03-15T12:00:00+00:00"/>
				<notes value="Right Fourth cranial nerve palsy"/>
			</Condition>
		</resource>
	</entry>
	<!--Examination procedure 1-->
	<entry>
	<fullUrl value="urn:uuid:a2eb6492-6a1f-434e-a3b0-dc13bd8fbe07"/>
	<resource>	
		<Procedure>
		<id value="a2eb6492-6a1f-434e-a3b0-dc13bd8fbe07"/>
		<meta>
		<!--Identifies the profile being used-->
		<profile value="https://fhir.hl7.org.uk/StructureDefinition/CareConnect-Procedure-1"/>
		</meta>			
		<identifier>
			<system value="https://tools.ietf.org/html/rfc4122"/>
			<value value="aae14c55-5243-4443-a549-0fbf5587d34a"/>
		</identifier>
			<subject>
			<reference value="urn:uuid:31686b67-9f20-4644-9a54-193d2f91de57"/>
			<display value="PERRIN, Reginald (Mr)"/>
		</subject>
		<status value="in-progress"/>
		<code>
			<coding>
				<system value="http://snomed.info/sct"/>
				<code value="17259005"/>
				<display value="Ocular motility study"/>
			</coding>
		</code>
		<performer>
			<actor>
				<reference value="urn:uuid:052703f9-529f-4656-a398-24a16a0fb1e0"/>
			</actor>
		</performer>
		<outcome>
			<coding>
				<system value="http://snomed.info/sct"/>
				<code value="348241000119108"/>
				<display value="Hypertropia of right eye"/>
			</coding>
		</outcome>		
		</Procedure>	
	</resource>
	</entry>
		<!--Procedure procedure 1-->
	<entry>
	<fullUrl value="urn:uuid:d13e1719-9f3f-42e8-b850-32f93f45f80e"/>
	<resource>	
		<Procedure>
		<id value="d13e1719-9f3f-42e8-b850-32f93f45f80e"/>
		<meta>
		<!--Identifies the profile being used-->
		<profile value="https://fhir.hl7.org.uk/StructureDefinition/CareConnect-Procedure-1"/>
		</meta>			
		<identifier>
			<system value="https://tools.ietf.org/html/rfc4122"/>
			<value value="aae14c55-5243-4443-a549-0fbf5587d34a"/>
		</identifier>
			<subject>
			<reference value="urn:uuid:31686b67-9f20-4644-9a54-193d2f91de57"/>
			<display value="PERRIN, Reginald (Mr)"/>
		</subject>
		<status value="in-progress"/>
		<code>
			<coding>
				<system value="http://snomed.info/sct"/>
				<code value="419154004"/>
				<display value="Prism in glasses"/>
			</coding>
		</code>
		<performer>
			<actor>
				<reference value="urn:uuid:052703f9-529f-4656-a398-24a16a0fb1e0"/>
			</actor>
		</performer>
		</Procedure>	
	</resource>
	</entry>
	<!--history observation 1-->
	<entry>
	<fullUrl value="urn:uuid:8f0d1917-80b1-4e25-b82a-cd463d276fd9"/>
	<resource>	
		<Observation>
		<id value="8f0d1917-80b1-4e25-b82a-cd463d276fd9"/>
		<meta>
		<!--Identifies the profile being used-->
		<profile value="https://fhir.hl7.org.uk/StructureDefinition/CareConnect-Observation-1"/>
		</meta>
		<identifier>
			<system value="https://tools.ietf.org/html/rfc4122"/>
			<value value="c4770052-deec-4c28-9ecf-ff8b75995291"/>
		</identifier>
		<status value="final"/>
		<code>
			<coding>
				<system value="http://snomed.info/sct"/>
				<code value="717121000000105"/>
				<display value="History"/>
			</coding>
		</code>
		<subject>
			<reference value="urn:uuid:31686b67-9f20-4644-9a54-193d2f91de57"/>
			<display value="PERRIN, Reginald (Mr)"/>
		</subject>
		<effectiveDateTime value="2016-01-02T08:39:16+00:00"/>
		<performer>
			<reference value="urn:uuid:5e414a77-d394-4248-a631-00e45ddb64a0"/>
			<display value="O`REILLY, C (Dr)"/>
		</performer>
		<comments value="Diplopia and ocular mobility defect"/>
		</Observation>	
	</resource>
	</entry>

	<!--Patient-Example-1-->
	<entry>
		<fullUrl value="urn:uuid:31686b67-9f20-4644-9a54-193d2f91de57"/>
		<resource>
			<Patient>
				<id value="31686b67-9f20-4644-9a54-193d2f91de57"/>
				<meta>
					<profile value="https://fhir.hl7.org.uk/StructureDefinition/CareConnect-Patient-1"/>
				</meta>
				<extension url="https://fhir.hl7.org.uk/StructureDefinition/Extension-CareConnect-EthnicCategory-1">
					<valueCodeableConcept>
						<coding>
							<system value="https://fhir.hl7.org.uk/CareConnect-EthnicCategory-1"/>
							<code value="A"/>
							<display value="British, Mixed British"/>
						</coding>
					</valueCodeableConcept>
				</extension>
				<extension url="https://fhir.hl7.org.uk/StructureDefinition/Extension-CareConnect-ReligiousAffiliation-1">
					<valueCodeableConcept>
						<coding>
							<system value="http://snomed.info/sct"/>
							<code value="80587008"/>
							<display value="Jehovah's Witness"/>
						</coding>
					</valueCodeableConcept>
				</extension>
				<extension url="http://hl7.org/fhir/StructureDefinition/patient-cadavericDonor">
					<valueBoolean value="false"/>
				</extension>
				<extension url="https://fhir.hl7.org.uk/StructureDefinition/Extension-CareConnect-ResidentialStatus-1">
					<valueCodeableConcept>
						<coding>
							<system value="https://fhir.hl7.org.uk/CareConnect-ResidentialStatus-1"/>
							<code value="H"/>
							<display value="UK Resident"/>
						</coding>
					</valueCodeableConcept>
				</extension>
				<extension url="https://fhir.hl7.org.uk/StructureDefinition/Extension-CareConnect-TreatmentCategory-1">
					<valueCodeableConcept>
						<coding>
							<system value="https://fhir.hl7.org.uk/CareConnect-TreatmentCategory-1"/>
							<code value="8"/>
							<display value="Not applicable"/>
						</coding>
					</valueCodeableConcept>
				</extension>
				<extension url="https://fhir.hl7.org.uk/StructureDefinition/Extension-CareConnect-NHSCommunication-1">
					<extension url="language">
						<valueCodeableConcept>
							<coding>
								<system value="https://fhir.hl7.org.uk/CareConnect-HumanLanguage-1"/>
								<code value="en"/>
								<display value="English"/>
							</coding>
						</valueCodeableConcept>
					</extension>
					<extension url="preferred">
						<valueBoolean value="true"/>
					</extension>
					<extension url="modeOfCommunication">
						<valueCodeableConcept>
							<coding>
								<system value="https://fhir.hl7.org.uk/CareConnect-LanguageAbilityMode-1"/>
								<code value="ESP"/>
								<display value="Expressed spoken"/>
							</coding>
						</valueCodeableConcept>
					</extension>
					<extension url="modeOfCommunication">
						<valueCodeableConcept>
							<coding>
								<system value="https://fhir.hl7.org.uk/CareConnect-LanguageAbilityMode-1"/>
								<code value="RWR"/>
								<display value="Received written"/>
							</coding>
						</valueCodeableConcept>
					</extension>
					<extension url="communicationProficiency">
						<valueCodeableConcept>
							<coding>
								<system value="https://fhir.hl7.org.uk/CareConnect-LanguageAbilityProficiency-1"/>
								<code value="E"/>
								<display value="Excellent"/>
							</coding>
						</valueCodeableConcept>
					</extension>
					<extension url="interpreterRequired">
						<valueBoolean value="false"/>
					</extension>
				</extension>
				<identifier>
					<extension url="https://fhir.hl7.org.uk/StructureDefinition/Extension-CareConnect-NHSNumberVerificationStatus-1">
						<valueCodeableConcept>
							<coding>
								<system value="https://fhir.hl7.org.uk/CareConnect-NHSNumberVerificationStatus-1"/>
								<code value="01"/>
								<display value="Number present and verified"/>
							</coding>
						</valueCodeableConcept>
					</extension>
					<system value="https://fhir.nhs.uk/Id/nhs-number"/>
					<value value="4101119966"/>
				</identifier>
				<active value="true"/>
				<name>
					<use value="usual"/>
					<family value="Perrin"/>
					<given value="Reginald"/>
					<prefix value="Mr"/>
				</name>
					<telecom>
					<system value="phone"/>
					<value value="077 6677 7766"/>
					<use value="mobile"/>
				</telecom>
				<telecom>
					<system value="email"/>
					<value value="reginald@perrin.net"/>
					<use value="home"/>
				</telecom>
				<gender value="male"/>
				<birthDate value="1933-04-01"/>
				<address>
					<use value="home"/>
					<line value="5 Acacia Road"/>
					<postalCode value="BM9 6PL"/>
				</address>
				<careProvider>
					<reference value="urn:uuid:f9f24f89-646b-4a19-a6b1-cabfa3b612e1"/>
					<display value="Canvas Health Centre"/>
				</careProvider>
			</Patient>
		</resource>
	</entry>
	<!--Practitioner-Example-1-->
	<entry>
		<fullUrl value="urn:uuid:8ece9986-9af0-4882-b0cf-23a96ea7b509"/>
		<resource>
			<Practitioner>
				<id value="8ece9986-9af0-4882-b0cf-23a96ea7b509"/>
				<meta>
					<profile value="https://fhir.hl7.org.uk/StructureDefinition/CareConnect-Practitioner-1"/>
				</meta>
				<name>
					<family value="Kavanagh"/>
					<given value="Patricia"/>
				</name>
				<practitionerRole>
					<managingOrganization>
						<reference value="12bba528-a08a-448b-946b-7e8008044025"/>
						<display value="St Crispin’s Hospital"/>
					</managingOrganization>
					<role>
						<coding>
							<system value="https://fhir.hl7.org.uk/CareConnect-SDSJobRoleName-1"/>
							<code value="R0600"/>
							<display value="Specialist Nurse Practitioner"/>
						</coding>
					</role>
				</practitionerRole>
			</Practitioner>
		</resource>
	</entry>
	<!--Practitioner-Example-2-->
	<entry>
		<fullUrl value="urn:uuid:5e414a77-d394-4248-a631-00e45ddb64a0"/>
		<resource>
			<Practitioner>
				<id value="5e414a77-d394-4248-a631-00e45ddb64a0"/>
				<meta>
					<profile value="https://fhir.hl7.org.uk/StructureDefinition/CareConnect-Practitioner-1"/>
				</meta>
				<identifier>
					<system value="https://fhir.nhs.uk/Id/sds-user-id"/>
					<value value="GP12345600"/>
				</identifier>
				<name>
					<family value="O`Reilly"/>
					<given value="C"/>
					<prefix value="Dr"/>
				</name>
				<telecom>
						<system value="phone"/>
						<value value="01234 562987"/>
						<use value="work"/>
				</telecom>
				<practitionerRole>
					<managingOrganization>
						<reference value="urn:uuid:f9f24f89-646b-4a19-a6b1-cabfa3b612e1"/>
						<display value="Canvas Health Centre"/>
					</managingOrganization>
					<role>
						<coding>
							<system value="https://fhir.hl7.org.uk/CareConnect-SDSJobRoleName-1"/>
							<code value="R0260"/>
							<display value="General Medical Practitioner"/>
						</coding>
					</role>
				</practitionerRole>
			</Practitioner>
		</resource>
	</entry>
	<!--Practitioner-Example-3-->
	<entry>
		<fullUrl value="urn:uuid:052703f9-529f-4656-a398-24a16a0fb1e0"/>
		<resource>
			<Practitioner>
				<id value="052703f9-529f-4656-a398-24a16a0fb1e0"/>
				<meta>
					<profile value="https://fhir.hl7.org.uk/StructureDefinition/CareConnect-Practitioner-1"/>
				</meta>
				<name>
					<family value="Rigsby"/>
					<given value="Rupert"/>
					<prefix value="Mr"/>
				</name>
				<address>
					<line value="St Crispin’s Hospital"/>
					<line value="Ophthalmology Clinic"/>
					<city value="Donaldstown"/>
					<postalCode value="DO5 7TP"/>
				</address>
				<practitionerRole>
					<managingOrganization>
						<reference value="urn:uuid:e1580b71-99bd-4c5b-8d54-9b420418135f"/>
						<display value="St Crispin’s Hospital"/>
					</managingOrganization>
					<role>
						<coding>
							<system value="https://fhir.hl7.org.uk/CareConnect-SDSJobRoleName-1"/>
							<code value="R0050"/>
							<display value="Consultant"/>
						</coding>
					</role>
				</practitionerRole>
			</Practitioner>
		</resource>
	</entry>
	<!--Organization-Example-1-->
	<entry>
		<fullUrl value="urn:uuid:f9f24f89-646b-4a19-a6b1-cabfa3b612e1"/>
		<resource>
			<Organization>
				<id value="f9f24f89-646b-4a19-a6b1-cabfa3b612e1"/>
				<meta>
					<profile value="https://fhir.hl7.org.uk/StructureDefinition/CareConnect-Organization-1"/>
				</meta>
				<identifier>
					<system value="https://fhir.nhs.uk/Id/ods-organization-code"/>
					<value value="A111111"/>
				</identifier>
				<type>
					<coding>
						<system value="http://hl7.org/fhir/organization-type"/>
						<code value="prov"/>
						<display value="Healthcare Provider"/>
					</coding>
				</type>
				<name value="Canvas Health Centre"/>
				<telecom>
					<system value="phone"/>
					<value value="01234 956412"/>
					<use value="work"/>
				</telecom>
				<telecom>
					<system value="email"/>
					<value value="Admin@MMC.co.uk"/>
				</telecom>
				<address>
					<use value="work"/>
					<line value="27 Acacia Road"/>
					<line value="BM9 6PM "/>
				</address>
			</Organization>
		</resource>
	</entry>
	<!--Organization-Example-2-->
	<entry>
		<fullUrl value="urn:uuid:12bba528-a08a-448b-946b-7e8008044025"/>
		<resource>
			<Organization>
				<id value="12bba528-a08a-448b-946b-7e8008044025"/>
				<meta>
					<profile value="https://fhir.hl7.org.uk/StructureDefinition/CareConnect-Organization-1"/>
				</meta>
				<identifier>
					<system value="https://fhir.nhs.uk/Id/ods-organization-code"/>
					<value value="RR8"/>
				</identifier>
				<type>
					<coding>
						<system value="http://hl7.org/fhir/organization-type"/>
						<code value="prov"/>
						<display value="Healthcare Provider"/>
					</coding>
				</type>
				<name value="St Crispin’s Hospital"/>
				<telecom>
					<system value="phone"/>
					<value value="01234 567890"/>
					<use value="work"/>
				</telecom>
				<address>
					<line value="St Crispin’s Hospital"/>
					<line value="Department of Palliative Medicine"/>
					<line value="Donaldstown"/>
					<postalCode value="DO5 7TP"/>
				</address>
			</Organization>
		</resource>
	</entry>
	<!--Location-Example-1-->
	<entry>
		<fullUrl value="urn:uuid:01bb1ccc-577b-4a4a-9fb0-9c8fe9f21fa3"/>
		<resource>
			<Location>
				<id value="01bb1ccc-577b-4a4a-9fb0-9c8fe9f21fa3"/>
				<meta>
					<profile value="https://fhir.hl7.org.uk/StructureDefinition/CareConnect-Location-1"/>
				</meta>
				<name value="St Crispin’s Hospital"/>
				<type>
					<coding>
						<system value="http://hl7.org/fhir/v3/RoleCode"/>
						<code value="HOSP"/>
						<display value="Hospital"/>
					</coding>
				</type>
			</Location>
		</resource>
	</entry>
</Bundle>
