<?xml version="1.0" encoding="UTF-8"?>
<!--Sample XML file generated by XMLSpy v2017 sp2 (http://www.altova.com)-->
<Bundle xmlns="http://hl7.org/fhir" xmlns:xsi="http://www.w3.org/2001/XMLSchema-instance" xsi:schemaLocation="http://hl7.org/fhir ../../Schemas/bundle.xsd">
	<id value="6191cc21-cb11-4d99-8cb2-2afe1c7e9d2f"/>
	<meta>
		<profile value="https://fhir.nhs.uk/StructureDefinition/cofe-document-bundle-1"/>
	</meta>
	<type value="document"/>
	<!--Outpatient Letter Composition-->
	<entry>
		<fullUrl value="urn:uuid:95ab3b52-b229-43db-a919-fa09db5e08d3"/>
		<resource>
			<Composition>
				<id value="95ab3b52-b229-43db-a919-fa09db5e08d3"/>
				<meta>
					<profile value="https://fhir.nhs.uk/StructureDefinition/cofe-opl-composition-1"/>
				</meta>
				<!-- Information Recipient 1 -->
				<extension url="https://fhir.nhs.uk/StructureDefinition/extension-cofe-information-recipient-1">
					<valueReference>
						<reference value="5e414a77-d394-4248-a631-00e45ddb64a0"/>
						<display value="O`REILLY, C (Dr)"/>
					</valueReference>
				</extension>				
				<!-- Care Setting Type -->
				<extension url="https://fhir.nhs.uk/StructureDefinition/extension-cofe-care-setting-type-1">
					<valueCodeableConcept>
						<coding>
							<system value="http://snomed.info/sct"/>
							<code value="309941000"/>
							<display value="Rheumatology department"/>
						</coding>
					</valueCodeableConcept>
				</extension>			
				<identifier>
					<value id="2b5d459b-df79-4a2b-9b0c-95b2a7ee2ca4"/>
				</identifier>
				<date value="2015-02-17T10:00:00+00:00"/>
				<type>
					<!--Discharge Summary-->
					<coding>
						<system value="http://snomed.info/sct"/>
						<code value="373942005"/>
						<display value="Discharge summary"/>
					</coding>
				</type>
				<title value="Discharge summary"/>
				<status value="final"/>
				<confidentiality value="V"/>
				<subject>
					<reference value="urn:uuid:31686b67-9f20-4644-9a54-193d2f91de57"/>
					<display value="GENTLY, Ophelia (Miss)"/>
				</subject>
				<author>
					<reference value="urn:uuid:d25fd1c6-2658-4db7-9af0-86c5f95e8ec9"/>
					<display value="CRIPPEN, H.H (Dr)"/>
				</author>
				<custodian>
					<reference value="urn:uuid:12bba528-a08a-448b-946b-7e8008044025"/>
					<display value="St Crispin’s Hospital"/>
				</custodian>
				<encounter>
					<reference value="urn:uuid:542bc1af-38a8-4a70-8d83-f3cba2599cf1"/>
					<display value="Medical consultation on hospital inpatient"/>
				</encounter>	
				<!--Attendance details section-->	
				<section>
					<title value="Attendance details section"/>
					<code>
						<coding>
							<system value="http://snomed.info/sct"/>
							<code value="886811000000106"/>
							<display value="Attendance details section"/>
						</coding>
					</code>
					<text>
						<status value="generated"/>
						<div xmlns="http://www.w3.org/1999/xhtml">
							<table width="100%">
								<tbody>
									<tr>
										<th>Date of encounter</th>
										<td>01/05/2017</td>
									</tr>
									<tr>
										<th>Contact type</th>
										<td>First attendance</td>
									</tr>
									<tr>
										<th>Consultation method</th>
										<td>Face-to-face</td>
									</tr>
									<tr>
										<th>Seen by</th>
										<td>Susan Blight, Community dietician<br/></td>
									</tr>
									<tr>
										<td></td>
										<td>(01234) 569870</td>
									</tr>
									<tr>
											<th>Outcome</th>
											<td>Appointment to be made at a later date for follow-up via telephone within 1 month.</td>
									</tr>
								</tbody>
							</table>
						</div>
					</text>
					<orderedBy>
						<coding>
							<system value="http://hl7.org/fhir/list-order"/>
							<code value="system"/>
							<display value="Sorted by System"/>
						</coding>
					</orderedBy>
			<!--		<entry>
						<reference value="urn:uuid:c37a3a1a-0895-44c4-a79a-f7b7bb425e47"/>
					</entry>-->
				</section>									
					<!--Diagnoses-->
				<section>
					<title value="Diagnoses"/>
					<code>
						<coding>
							<system value="http://snomed.info/sct"/>
							<code value="887161000000102"/>
							<display value="Diagnoses"/>
						</coding>
					</code>
					<text>
						<status value="generated"/>
						<div xmlns="http://www.w3.org/1999/xhtml">
					
							<br/>
						<table style="color:#000000;" width="55%" border="0">
								<tbody>
									<tr>
										<th align="left">Diagnosis</th>
									</tr>
									<tr>
										<td>Multiple joint pain</td>						
									</tr>		
									<tr>
										<td>fatigue</td>						
									</tr>	
									<tr>
										<td>Type 1 diabetes</td>						
									</tr>	
									<tr>
										<td>Hypothyroidism</td>						
									</tr>				
								</tbody>
							</table>
							<br/>
							<p>Thank you for referring Miss Gently to my rheumatology outpatient clinic.</p>
							<br/>
						</div>
					</text>
					<orderedBy>
						<coding>
							<system value="http://hl7.org/fhir/list-order"/>
							<code value="system"/>
							<display value="Sorted by System"/>
						</coding>
					</orderedBy>
<!--					<entry>
						<reference value="urn:uuid:8197e5be-1483-48e6-bf30-842f5184d4cf"/>
						<display value="Legion on forearm"/>
					</entry>
					<entry>
						<reference value="urn:uuid:84a8fe59-7b83-4eae-a40b-170ed685524f"/>
						<display value="Hypertension"/>
					</entry>-->
				</section>															

				<!--Clinical summary-->
				<section>
					<title value="Clinical summary"/>
					<code>
						<coding>
							<system value="http://snomed.info/sct"/>
							<code value="887181000000106"/>
							<display value="Clinical summary"/>
						</coding>
					</code>
					<text>
						<status value="generated"/>
						<div xmlns="http://www.w3.org/1999/xhtml">
							<table width="100%">
								<tbody>
									<tr>
										<th align="left">Clinical Summary</th>
									</tr>
									<tr>
										<td>Symptoms are unlikely to improve until sleep disturbance is tackled.  I suggest Amitriptyline is prescribed.</td>
									</tr>
								</tbody>
							</table>
						</div>
					</text>
				</section>				

				<!--History-->
				<section>
					<title value="History"/>
					<code>
						<coding>
							<system value="http://snomed.info/sct"/>
							<code value="717121000000105"/>
							<display value="History"/>
						</coding>
					</code>
					<text>
						<status value="generated"/>
						<div xmlns="http://www.w3.org/1999/xhtml">
							<table width="100%">
								<tbody>
									<tr>
										<th align="left">History</th>
									</tr>
									<tr>
										<td>Miss Gently has had left wrist pain since December 2016. Since then she has also had right wrist pain and aching in the shoulders and knees. 
										She describes tingling and burning in the forearms and in the calves and shins. Her symptoms are gradually worsening and they are now constant. She feels tired all the time and has broken unrefreshing sleep. She has been diagnosed with Type 1 diabetes and hypothyroidism.</td>
									</tr>
								</tbody>
							</table>
						</div>
					</text>
				</section>						
								<!--Allergies and adverse reactions-->
				<section>
					<title value="Allergies and adverse reactions"/>
					<code>
						<coding>
							<system value="http://snomed.info/sct"/>
							<code value="886921000000105"/>
							<display value="Allergies and adverse reactions"/>
						</coding>
					</code>
					<text>
						<status value="generated"/>
						<div xmlns="http://www.w3.org/1999/xhtml">
							<table width="100%">
								<tbody>
								<tr>
									<th align="left">Allergies and adverse reactions</th>
								</tr>
									<tr>
										<td>No known allergies or adverse reactions</td>
										</tr>
								</tbody>
							</table>
						</div>
					</text>
					<orderedBy>
						<coding>
							<system value="http://hl7.org/fhir/list-order"/>
							<code value="system"/>
							<display value="Sorted by System"/>
						</coding>
					</orderedBy>
			<!--		<entry>
						<reference value="urn:uuid:627bd799-7a86-40bd-a931-d8526b412fa5"/>
						<display value="Allergies"/>
					</entry>-->
				</section>
								<!--Participation in research-->
				<section>
					<title value="Participation in research"/>
					<code>
						<coding>
							<system value="http://snomed.info/sct"/>
							<code value="886751000000102"/>
							<display value="Participation in research"/>
						</coding>
					</code>
					<text>
						<status value="generated"/>
						<div xmlns="http://www.w3.org/1999/xhtml">
							<table width="100%">
								<tbody>
								<tr>
									<th align="left">Participation in research</th>
								</tr>
								
									<tr>
										<td>Name of research study: APIPPRA http://www.kcl.ac.uk/lsm/research/divisions/diiid/departments/rheumatology/research/clinical/current/apippra/apippra.aspx </td>
									</tr>
								</tbody>
							</table>						
						</div>
					</text>
				</section>
								<!--Social context-->
				<section>
					<title value="Social context"/>
					<code>
						<coding>
							<system value="http://snomed.info/sct"/>
							<code value="887051000000101"/>
							<display value="Social context"/>
						</coding>
					</code>
					<text>
						<status value="generated"/>
						<div xmlns="http://www.w3.org/1999/xhtml">
							<table width="100%">
								<tbody>
									<tr>
										<th align="left">Social context</th>
										<th></th>
									</tr>
									<tr>
										<td align="left">Occupational history</td>
										<td>Unemployed</td>
										 </tr>
										 	<tr>
										<td align="left">Alcohol intake</td>
										<td>10-12 units weekly</td>
										 </tr>
										  	<tr>
										<td align="left">Smoking</td>
										<td>Ex-smoker</td>
										 </tr>
								</tbody>
							</table>
						</div>
					</text>
				</section>
								<!--Review of systems-->
				<section>
					<title value="Review of systems"/>
					<code>
						<coding>
							<system value="http://snomed.info/sct"/>
							<code value="887121000000105"/>
							<display value="Review of systems"/>
						</coding>
					</code>
					<text>
						<status value="generated"/>
						<div xmlns="http://www.w3.org/1999/xhtml">
							<table width="100%">
								<tbody>
								<tr>
									<th align="left">Review of systems</th>
								</tr>
									<tr>
										<td align="left">Poor sleep.</td>
									</tr>
								</tbody>
							</table>
						</div>
					</text>
				</section>				
								<!--Examiniation findings-->
				<section>
					<title value="Examination finding"/>
					<code>
						<coding>
							<system value="http://snomed.info/sct"/>
							<code value="715851000000102"/>
							<display value="Examination findings"/>
						</coding>
					</code>
					<text>
						<status value="generated"/>
						<div xmlns="http://www.w3.org/1999/xhtml">
							<table width="50%">
								<tbody>
									<tr>
										<th align="left">Examiniation findings</th>
									</tr>
									<tr>
									<td>Musculoskeletal system</td>
										<td>Trapezius discomfort on elevation of the shoulders. Discomfort on active  neck movements.</td>
									</tr>
								</tbody>
							</table>
						</div>
					</text>
				</section>
								<!--Patient and carer concerns-->
				<section>
					<title value="Patient and carer concerns, expectations and wishes"/>
					<code>
						<coding>
							<system value="http://snomed.info/sct"/>
							<code value="1052941000000107"/>
							<display value="Patient and carer concerns, expectations and wishes"/>
						</coding>
					</code>
					<text>
						<status value="generated"/>
						<div xmlns="http://www.w3.org/1999/xhtml">
							<table width="100%">
								<tbody>
									<tr>
										<th align="left">Patient and carer concerns, expectations and wishes</th>								
									</tr>
									<tr>
										<td>I just want to stop hurting all the time and to have some energy back.</td>
									</tr>
								</tbody>
							</table>
							<br/>
						</div>
					</text>
				</section>		
								<!--Investigation results-->
						<section>
					<title value="Investigation results"/>
					<code>
						<coding>
							<system value="http://snomed.info/sct"/>
							<code value="24641000000107"/>
							<display value="Investigation results"/>
						</coding>
					</code>
					<text>
						<status value="generated"/>
						<div xmlns="http://www.w3.org/1999/xhtml">
							<table width="50%">
								<tbody>
									<tr>
										<th align="left">Investigation results</th>
										<th></th>
									</tr>
									<tr>
										<td align="left">Antinuclear antibodies</td>
										<td>Normal</td>
										 </tr>
										 	<tr>
										<td align="left">Complement levels</td>
										<td>Normal</td>
										 </tr>
										  	<tr>
										<td align="left">Immunoglobins</td>
										<td>Normal</td>
										 </tr>
								</tbody>
							</table>
						</div>
					</text>
				</section>	
								<!--Medication and medical devices-->
				<section>
					<title value="Medications and medical devices"/>
					<code>
						<coding>
							<system value="http://snomed.info/sct"/>
							<code value="933361000000108"/>
							<display value="Medications and medical devices"/>
						</coding>
					</code>
					<text>
						<status value="generated"/>
						<div xmlns="http://www.w3.org/1999/xhtml">
							<table width="55%">
								<tbody>
									<tr>
									<th align="left">Changes to medications and medical devices</th>							
									</tr>
									<tr>
										<td>(only changes to medications and medical devices as a result of the outpatient encounter are included)</td>
									</tr>
									<tr>
										<td align="left">Medication name</td>
										<td align="left">Amitriptyline</td>
									</tr>
									<tr>
										<td align="left">Medication form</td>
										<td align="left">Tablet</td>
									</tr>
									<tr>
										<td align="left">Route</td>
										<td align="left">Oral</td>
									</tr>
									<tr>
										<td align="left">Dose</td>
										<td align="left">1 x 10mg tablet </td>
									</tr>
										<tr>
										<td align="left">Medication frequency</td>
										<td align="left">Once per day</td>
									</tr>
									<tr>
										<td align="left">Additional instructions</td>
										<td align="left">To be taken one hour before bed</td>
									</tr>
									<tr>
										<td>Status</td>
										<td>Medication added</td>
									</tr>
										<tr>
										<td align="left">Start date/time</td>
										<td align="left">11/05/17</td>
									</tr>
											<tr>
										<td align="left">End date/time</td>
										<td align="left">Trial for 2xweeks</td>
									</tr>
									<tr>
										<td align="left">Reason for medication change</td>
										<td align="left">Sleep disturbance</td>
									</tr>
									<tr>
										<td align="left">Link to indication record</td>
										<td align="left"></td>
									</tr>
									<tr>
										<td align="left">Medication recommendations</td>
										<td align="left">Titrating upwards according to response and tolerance. </td>
									</tr>
										<tr>
										<td align="left">Comment</td>
										<td align="left">Patient given 2xweek prescription in clinic. GP to please review in 2xweeks and renew or amend prescription as necessary.</td>
									</tr>
								</tbody>
							</table>
							<br/>
						</div>
					</text>
					<orderedBy>
						<coding>
							<system value="http://hl7.org/fhir/list-order"/>
							<code value="system"/>
							<display value="Sorted by System"/>
						</coding>
					</orderedBy>
				<!--	<entry>
						<reference value="urn:uuid:9b1cf5d4-2445-4c99-994a-b75b1a13a4f3"/>
						<display value="Medication List"/>
					</entry>-->
				</section>
								<!--Actions for patients.-->
				<section>
					<title value="Plan and requested actions"/>
					<code>
						<coding>
							<system value="http://snomed.info/sct"/>
							<code value="887201000000105"/>
							<display value="Plan and requested actions"/>
						</coding>
					</code>
					<text>
						<status value="generated"/>
						<div xmlns="http://www.w3.org/1999/xhtml">
							<table width="100%">
								<tbody>
								<tr>
									<th align="left">Plan and requested actions for patients</th>
								</tr>			
									<tr>
										<td>Should endeavor to take regular, gentle exercise in gradually increasing amounts.</td>
									</tr>
								</tbody>
							</table>						
						</div>
					</text>
				</section>
								<!--Information given-->
				<section>
					<title value="Information and advice given"/>
					<code>
						<coding>
							<system value="http://snomed.info/sct"/>
							<code value="1052951000000105"/>
							<display value="Information and advice given"/>
						</coding>
					</code>
					<text>
					<status value="generated"/>
						<div xmlns="http://www.w3.org/1999/xhtml">
						<table>
							<tbody>
								<tr>
									<th>Information and advice given</th>
								</tr>
								<tr>
									<td>The patient was advised that previous abnormal blood results are not of any clinical significant other than reflecting known diagnosis of thyroid disease.</td>
								</tr>
							</tbody>
						</table>
						</div>
					</text>
				</section>				
			</Composition>		
		</resource>
	</entry>
	<!--Encounter Example 1-->
	<entry>
		<fullUrl value="urn:uuid:542bc1af-38a8-4a70-8d83-f3cba2599cf1"/>
		<resource>
			<Encounter>
				<id value="542bc1af-38a8-4a70-8d83-f3cba2599cf1"/>
				<meta>
					<profile value="https://fhir.hl7.org.uk/StructureDefinition/CareConnect-Encounter-1"/>
				</meta>
				<identifier>
					<system value="https://tools.ietf.org/html/rfc4122"/>
					<value value="d9e89dd2-284e-4bdb-91cd-7d2a6ecd2cf4"/>
				</identifier>
				<status value="finished"/>
				<class value="outpatient"/>
				<type>
					<coding>
						<system value="http://snomed.info/sct"/>
						<code value="24882007"/>
						<display value="Medical consultation on hospital inpatient"/>
					</coding>
				</type>
				<patient>
					<reference value="urn:uuid:31686b67-9f20-4644-9a54-193d2f91de57"/>
					<display value="GENTLY, Ophelia (Miss)"/>
				</patient>
				<period>
					<start value="2017-05-16T09:00:00+00:00"/>
					<end value="2017-05-16T09:00:00+00:00"/>
				</period>
				<hospitalization>
					<admitSource>
						<coding>
							<system value="http://hl7.org/fhir/admit-source"/>
							<code value="gp"/>
							<display value="General Practitioner referral"/>
						</coding>
					</admitSource>
					<dischargeDisposition>
						<coding>
							<system value="http://hl7.org/fhir/discharge-disposition"/>
							<code value="home"/>
							<display value="Home"/>
						</coding>
					</dischargeDisposition>
					<dischargeDiagnosis>
						<reference value="urn:uuid:ee826d1f-8234-4aa2-9b7d-081276863cd0"/>
						<display value="Multiple joint pain"/>
					</dischargeDiagnosis>
					<dischargeDiagnosis>
						<reference value="urn:uuid:38e8b532-a6d3-4916-af30-26edcb1143f5"/>
						<display value="fatigue"/>
					</dischargeDiagnosis>
					<dischargeDiagnosis>
						<reference value="urn:uuid:143a769b-bc28-4359-b114-1c0622f0aa99"/>
						<display value="Type 1 diabetes"/>
					</dischargeDiagnosis>
					<dischargeDiagnosis>
						<reference value="urn:uuid:b32187ed-5a53-466b-b750-2806ca6a503f"/>
						<display value="Hypothyroidism"/>
					</dischargeDiagnosis>
					
				</hospitalization>
				<location>
					<location>
						<reference value="urn:uuid:01bb1ccc-577b-4a4a-9fb0-9c8fe9f21fa3"/>
						<display value="Hospital"/>
					</location>
				</location>
			</Encounter>
		</resource>
	</entry>
	

	<!--Diagnoses 1-->
	<entry>
		<fullUrl value="urn:uuid:5590e1f9-c85b-4e14-be4c-efb6aa693fa5"/>
		<resource>
			<Condition>
				<id value="5590e1f9-c85b-4e14-be4c-efb6aa693fa5"/>
				<meta>
					<profile value="https://fhir.hl7.org.uk/StructureDefinition/CareConnect-Condition-1"/>
				</meta>
				<identifier>
					<system value="https://tools.ietf.org/html/rfc4122"/>
					<value value="ee826d1f-8234-4aa2-9b7d-081276863cd0"/>
				</identifier>
				<patient>
					<reference value="urn:uuid:31686b67-9f20-4644-9a54-193d2f91de57"/>
					<display value="GENTLY, Ophelia (Miss)"/>
				</patient>
				<encounter>
					<reference value="urn:uuid:542bc1af-38a8-4a70-8d83-f3cba2599cf1"/>
				</encounter>
				<asserter>
					<reference value="urn:uuid:5e414a77-d394-4248-a631-00e45ddb64a0"/>
						<display value="O`REILLY, C (Dr)"/>
				</asserter>
				<dateRecorded value="2017-05-16"/>
				<code>
					<coding>
						<system value="http://snomed.info/sct"/>
						<code value="57676002"/>
						<display value="Joint pain"/>
					</coding>
				</code>
				<category>
					<coding>
						<system value="https://fhir.hl7.org.uk/CareConnect-ConditionCategory-1"/>
						<code value="diagnosis"/>
						<display value="Diagnosis"/>
					</coding>
				</category>
				<clinicalStatus value="active"/>
				<verificationStatus value="confirmed"/>
				<onsetDateTime value="2015-03-15T12:00:00+00:00"/>
			</Condition>
		</resource>
	</entry>
		<!--Diagnoses 2-->
	<entry>
		<fullUrl value="urn:uuid:7400a34c-28d9-4668-8b52-90866efc5356"/>
		<resource>
			<Condition>
				<id value="7400a34c-28d9-4668-8b52-90866efc5356"/>
				<meta>
					<profile value="https://fhir.hl7.org.uk/StructureDefinition/CareConnect-Condition-1"/>
				</meta>
				<identifier>
					<system value="https://tools.ietf.org/html/rfc4122"/>
					<value value="38e8b532-a6d3-4916-af30-26edcb1143f5"/>
				</identifier>
				<patient>
					<reference value="urn:uuid:31686b67-9f20-4644-9a54-193d2f91de57"/>
					<display value="GENTLY, Ophelia (Miss)"/>
				</patient>
				<encounter>
					<reference value="urn:uuid:542bc1af-38a8-4a70-8d83-f3cba2599cf1"/>
				</encounter>
				<asserter>
					<reference value="urn:uuid:5e414a77-d394-4248-a631-00e45ddb64a0"/>
						<display value="O`REILLY, C (Dr)"/>
				</asserter>
				<dateRecorded value="2015-03-05"/>
				<code>
					<coding>
						<system value="http://snomed.info/sct"/>
						<code value="84229001"/>
						<display value="Fatigue"/>
					</coding>
				</code>
				<category>
					<coding>
						<system value="https://fhir.hl7.org.uk/CareConnect-ConditionCategory-1"/>
						<code value="diagnosis"/>
						<display value="Diagnosis"/>
					</coding>
				</category>
				<clinicalStatus value="active"/>
				<verificationStatus value="confirmed"/>
				<onsetDateTime value="2017-05-15T12:00:00+00:00"/>
			</Condition>
		</resource>
	</entry>
		<!--Diagnoses 3-->
	<entry>
		<fullUrl value="urn:uuid:0663afce-4e06-4c72-84e1-21785e96b33e"/>
		<resource>
			<Condition>
				<id value="0663afce-4e06-4c72-84e1-21785e96b33e"/>
				<meta>
					<profile value="https://fhir.hl7.org.uk/StructureDefinition/CareConnect-Condition-1"/>
				</meta>
				<identifier>
					<system value="https://tools.ietf.org/html/rfc4122"/>
					<value value="38e8b532-a6d3-4916-af30-26edcb1143f5"/>
				</identifier>
				<patient>
					<reference value="urn:uuid:31686b67-9f20-4644-9a54-193d2f91de57"/>
					<display value="GENTLY, Ophelia (Miss)"/>
				</patient>
				<encounter>
					<reference value="urn:uuid:542bc1af-38a8-4a70-8d83-f3cba2599cf1"/>
				</encounter>
				<asserter>
					<reference value="urn:uuid:5e414a77-d394-4248-a631-00e45ddb64a0"/>
						<display value="O`REILLY, C (Dr)"/>
				</asserter>
				<dateRecorded value="2015-03-05"/>
				<code>
					<coding>
						<system value="http://snomed.info/sct"/>
						<code value="46635009"/>
						<display value="Type 1 diabetes mellitus"/>
					</coding>
				</code>
				<category>
					<coding>
						<system value="https://fhir.hl7.org.uk/CareConnect-ConditionCategory-1"/>
						<code value="diagnosis"/>
						<display value="Diagnosis"/>
					</coding>
				</category>
				<clinicalStatus value="active"/>
				<verificationStatus value="confirmed"/>
				<onsetDateTime value="2017-05-15T12:00:00+00:00"/>
			</Condition>
		</resource>
	</entry>
		<!--Diagnoses 4-->
	<entry>
		<fullUrl value="urn:uuid:fd5d1c2b-0f1a-4aa9-b148-2f1b376f84d7"/>
		<resource>
			<Condition>
				<id value="fd5d1c2b-0f1a-4aa9-b148-2f1b376f84d7"/>
				<meta>
					<profile value="https://fhir.hl7.org.uk/StructureDefinition/CareConnect-Condition-1"/>
				</meta>
				<identifier>
					<system value="https://tools.ietf.org/html/rfc4122"/>
					<value value="b32187ed-5a53-466b-b750-2806ca6a503f"/>
				</identifier>
				<patient>
					<reference value="urn:uuid:31686b67-9f20-4644-9a54-193d2f91de57"/>
					<display value="GENTLY, Ophelia (Miss)"/>
				</patient>
				<encounter>
					<reference value="urn:uuid:542bc1af-38a8-4a70-8d83-f3cba2599cf1"/>
				</encounter>
				<asserter>
					<reference value="urn:uuid:5e414a77-d394-4248-a631-00e45ddb64a0"/>
						<display value="O`REILLY, C (Dr)"/>
				</asserter>
				<dateRecorded value="2015-03-05"/>
				<code>
					<coding>
						<system value="http://snomed.info/sct"/>
						<code value="40930008"/>
						<display value="Hypothyroidism"/>
					</coding>
				</code>
				<category>
					<coding>
						<system value="https://fhir.hl7.org.uk/CareConnect-ConditionCategory-1"/>
						<code value="diagnosis"/>
						<display value="Diagnosis"/>
					</coding>
				</category>
				<clinicalStatus value="active"/>
				<verificationStatus value="confirmed"/>
				<onsetDateTime value="2017-05-15T12:00:00+00:00"/>
			</Condition>
		</resource>
	</entry>
		<!--Examination observation 1-->
	<entry>
	<fullUrl value="urn:uuid:36766ef8-ec0a-4004-a1cc-b085da3e726c"/>
	<resource>	
		<Observation>
		<id value="36766ef8-ec0a-4004-a1cc-b085da3e726c"/>
		<meta>
		<!--Identifies the profile being used-->
		<profile value="https://fhir.hl7.org.uk/StructureDefinition/CareConnect-Observation-1"/>
		</meta>
		<identifier>
		<system value="https://tools.ietf.org/html/rfc4122"/>
			<value value="298fdf13-abff-4ce0-ad79-5aad9cb6d031"/>
		</identifier>
		<status value="final"/>
		<code>
			<coding>
				<system value="http://snomed.info/sct"/>
				<code value="302199004"/>
				<display value="Examination"/>
			</coding>
		</code>
		<subject>
			<reference value="urn:uuid:31686b67-9f20-4644-9a54-193d2f91de57"/>
			<display value="GENTLY, Ophelia (Miss)"/>
		</subject>
		<effectiveDateTime value="2016-01-02T08:39:16+00:00"/>
		<performer>
			<reference value="urn:uuid:5e414a77-d394-4248-a631-00e45ddb64a0"/>
			<display value="O`REILLY, C (Dr)"/>
		</performer>
		<comments value="Trapezius discomfort on elevation of the shoulders. Discomfort on active  neck movements."/>
		<bodySite>
			<coding>
				<system value="http://snomed.info/sct"/>
				<code value="181740005"/>
				<display value="Entire trapezius"/>
			</coding>
		</bodySite>
		</Observation>	
	</resource>
	</entry>	
		<!--Examination observation 1-->
	<entry>
	<fullUrl value="urn:uuid:359948a7-5148-4b84-a6c4-9bcfa995e023"/>
	<resource>	
		<Observation>
		<id value="359948a7-5148-4b84-a6c4-9bcfa995e023"/>
		<meta>
		<!--Identifies the profile being used-->
		<profile value="https://fhir.hl7.org.uk/StructureDefinition/CareConnect-Observation-1"/>
		</meta>
		<identifier>
		<system value="https://tools.ietf.org/html/rfc4122"/>
			<value value="298fdf13-abff-4ce0-ad79-5aad9cb6d031"/>
		</identifier>
		<status value="final"/>
		<code>
			<coding>
				<system value="http://snomed.info/sct"/>
				<code value="302199004"/>
				<display value="Examination"/>
			</coding>
		</code>
		<subject>
			<reference value="urn:uuid:31686b67-9f20-4644-9a54-193d2f91de57"/>
			<display value="GENTLY, Ophelia (Miss)"/>
		</subject>
		<effectiveDateTime value="2016-01-02T08:39:16+00:00"/>
		<performer>
			<reference value="urn:uuid:5e414a77-d394-4248-a631-00e45ddb64a0"/>
			<display value="O`REILLY, C (Dr)"/>
		</performer>
		<comments value="Trapezius discomfort on elevation of the shoulders. Discomfort on active  neck movements."/>
				<bodySite>
			<coding>
				<system value="http://snomed.info/sct"/>
				<code value="45048000"/>
				<display value="Neck"/>
			</coding>
		</bodySite>
		</Observation>	
	</resource>
	</entry>
		<!--history observation 1-->
	<entry>
	<fullUrl value="urn:uuid:4753afb2-ec1d-4dcc-be4b-a7c687a3cf6c"/>
	<resource>	
		<Observation>
		<id value="4753afb2-ec1d-4dcc-be4b-a7c687a3cf6c"/>
		<meta>
		<!--Identifies the profile being used-->
		<profile value="https://fhir.hl7.org.uk/StructureDefinition/CareConnect-Observation-1"/>
		</meta>
		<identifier>
		<system value="https://tools.ietf.org/html/rfc4122"/>
			<value value="cfd8258e-4a72-4b89-a916-68cc3bc604fd"/>
		</identifier>
		<status value="final"/>
		<code>
			<coding>
				<system value="http://snomed.info/sct"/>
				<code value="717121000000105"/>
				<display value="History"/>
			</coding>
		</code>
		<subject>
			<reference value="urn:uuid:31686b67-9f20-4644-9a54-193d2f91de57"/>
			<display value="GENTLY, Ophelia (Miss)"/>
		</subject>
		<effectiveDateTime value="2016-01-02T08:39:16+00:00"/>
		<performer>
			<reference value="urn:uuid:5e414a77-d394-4248-a631-00e45ddb64a0"/>
			<display value="O`REILLY, C (Dr)"/>
		</performer>
		<comments value="Miss Gently has had left wrist pain since December 2016. Since then she has also had right wrist pain and aching in the shoulders and knees. She describes tingling and burning in the forearms and in the calves and shins. Her symptoms are gradually worsening and they are now constant. She feels tired all the time and has broken unrefreshing sleep. She has been diagnosed with Type 1 diabetes and hypothyroidism."/>
		</Observation>	
	</resource>
	</entry>
		<!--Investigation procedure 1-->
	<entry>
	<fullUrl value="urn:uuid:91e7e1e2-d007-4ad4-a972-7dd909c93fa1"/>
	<resource>	
		<Procedure>
		<id value="91e7e1e2-d007-4ad4-a972-7dd909c93fa1"/>
		<meta>
		<!--Identifies the profile being used-->
		<profile value="https://fhir.hl7.org.uk/StructureDefinition/CareConnect-Procedure-1"/>
		</meta>
		<extension url="https://fhir.hl7.org.uk/StructureDefinition/Extension-CareConnect-ReasonCondition-1">
			<valueReference>
				<reference value="urn:uuid:c368011f-0796-4b62-86df-aa7ece3f4a89"/>
			</valueReference>
		</extension>
			
		<identifier>
			<system value="https://tools.ietf.org/html/rfc4122"/>
			<value value="aae14c55-5243-4443-a549-0fbf5587d34a"/>
		</identifier>
			<subject>
			<reference value="urn:uuid:31686b67-9f20-4644-9a54-193d2f91de57"/>
			<display value="GENTLY, Ophelia (Miss)"/>
		</subject>
		<status value="in-progress"/>
		<code>
			<coding>
				<system value="http://snomed.info/sct"/>
				<code value="396550006"/>
				<display value="Blood test"/>
			</coding>
		</code>
		<performer>
			<actor>
				<reference value="urn:uuid:d25fd1c6-2658-4db7-9af0-86c5f95e8ec9"/>
			</actor>
		</performer>
		<outcome>
			<coding>
				<system value="http://snomed.info/sct"/>
				<code value="17621005"/>
				<display value="Normal"/>
			</coding>
		</outcome>		
		</Procedure>	
	</resource>
	</entry>
		<!--Investigation reason 1-->
	<entry>
		<fullUrl value="urn:uuid:2c8267ae-ad35-4c46-81b6-8615b5f0406e"/>
	<resource>
		<Condition>
		<id value="2c8267ae-ad35-4c46-81b6-8615b5f0406e"/>
		<meta>
			<profile value="https://fhir.hl7.org.uk/StructureDefinition/CareConnect-Condition-1"/>
		</meta>
			<patient>
				<reference value="urn:uuid:31686b67-9f20-4644-9a54-193d2f91de57"/>
				<display value="GENTLY, Ophelia (Miss)"/>
			</patient>
			<asserter>
				<reference value="urn:uuid:d25fd1c6-2658-4db7-9af0-86c5f95e8ec9"/>
			</asserter>
			<dateRecorded value="2015-05-01"/>
			<code>
				<coding>
				<system value="http://snomed.info/sct"/>
				<code value="45530001"/>
				<display value="Antinuclear antibody"/>
			</coding>
			</code>
				<category>
					<coding>
						<system value="https://fhir.hl7.org.uk/CareConnect-ConditionCategory-1"/>
						<code value="finding"/>
						<display value="Finding"/>
					</coding>
				</category>
			<verificationStatus value="confirmed"/>
		</Condition>
		</resource>
	</entry>		

	<!--Patient concerns, expectations and wishes observation 1-->
	<entry>
	<fullUrl value="urn:uuid:a8460f1b-4490-43aa-b103-d13870bfea0d"/>
	<resource>	
		<Observation>
		<id value="a8460f1b-4490-43aa-b103-d13870bfea0d"/>
		<meta>
		<!--Identifies the profile being used-->
		<profile value="https://fhir.hl7.org.uk/StructureDefinition/CareConnect-Observation-1"/>
		</meta>
		<identifier>
		<system value="https://tools.ietf.org/html/rfc4122"/>
			<value value="d7cd518e-5f01-4a97-950b-0569a43eb8d4"/>
		</identifier>
		<status value="final"/>
		<code>
			<coding>
				<system value="http://snomed.info/sct"/>
				<code value="302199004"/>
				<display value="Examination"/>
			</coding>
		</code>
		<subject>
			<reference value="urn:uuid:31686b67-9f20-4644-9a54-193d2f91de57"/>
			<display value="GENTLY, Ophelia (Miss)"/>
		</subject>
		<effectiveDateTime value="2016-01-02T08:39:16+00:00"/>
		<performer>
			<reference value="urn:uuid:5e414a77-d394-4248-a631-00e45ddb64a0"/>
			<display value="O`REILLY, C (Dr)"/>
		</performer>
		<comments value="I just want to stop hurting all the time and to have some energy back. "/>
		</Observation>	
	</resource>
	</entry>
		<!--Patient-Example-1-->
	<entry>
		<fullUrl value="urn:uuid:31686b67-9f20-4644-9a54-193d2f91de57"/>
		<resource>
			<Patient>
				<id value="31686b67-9f20-4644-9a54-193d2f91de57"/>
				<meta>
					<profile value="https://fhir.hl7.org.uk/StructureDefinition/CareConnect-Patient-1"/>
				</meta>					
				<extension url="https://fhir.hl7.org.uk/StructureDefinition/Extension-CareConnect-EthnicCategory-1">
					<valueCodeableConcept>
						<coding>
							<system value="https://fhir.hl7.org.uk/CareConnect-EthnicCategory-1"/>
							<code value="A"/>
							<display value="British, Mixed British"/>
						</coding>
					</valueCodeableConcept>
				</extension>
				<extension url="https://fhir.hl7.org.uk/StructureDefinition/Extension-CareConnect-ReligiousAffiliation-1">
					<valueCodeableConcept>
						<coding>
							<system value="http://snomed.info/sct"/>
							<code value="80587008"/>
							<display value="Jehovah's Witness"/>
						</coding>
					</valueCodeableConcept>
				</extension>
				<extension url="http://hl7.org/fhir/StructureDefinition/patient-cadavericDonor">
					<valueBoolean value="false"/>
				</extension>
				<extension url="https://fhir.hl7.org.uk/StructureDefinition/Extension-CareConnect-ResidentialStatus-1">
					<valueCodeableConcept>
						<coding>
							<system value="https://fhir.hl7.org.uk/CareConnect-ResidentialStatus-1"/>
							<code value="H"/>
							<display value="UK Resident"/>
						</coding>
					</valueCodeableConcept>
				</extension>
				<extension url="https://fhir.hl7.org.uk/StructureDefinition/Extension-CareConnect-TreatmentCategory-1">
					<valueCodeableConcept>
						<coding>
							<system value="https://fhir.hl7.org.uk/CareConnect-TreatmentCategory-1"/>
							<code value="8"/>
							<display value="Not applicable"/>
						</coding>
					</valueCodeableConcept>
				</extension>
				<extension url="https://fhir.hl7.org.uk/StructureDefinition/Extension-CareConnect-NHSCommunication-1">
					<extension url="language">
						<valueCodeableConcept>
							<coding>
								<system value="https://fhir.hl7.org.uk/CareConnect-HumanLanguage-1"/>
								<code value="en"/>
								<display value="English"/>
							</coding>
						</valueCodeableConcept>
					</extension>
					<extension url="preferred">
						<valueBoolean value="true"/>
					</extension>
					<extension url="modeOfCommunication">
						<valueCodeableConcept>
							<coding>
								<system value="https://fhir.hl7.org.uk/CareConnect-LanguageAbilityMode-1"/>
								<code value="ESP"/>
								<display value="Expressed spoken"/>
							</coding>
						</valueCodeableConcept>
					</extension>
					<extension url="modeOfCommunication">
						<valueCodeableConcept>
							<coding>
								<system value="https://fhir.hl7.org.uk/CareConnect-LanguageAbilityMode-1"/>
								<code value="RWR"/>
								<display value="Received written"/>
							</coding>
						</valueCodeableConcept>
					</extension>
					<extension url="communicationProficiency">
						<valueCodeableConcept>
							<coding>
								<system value="https://fhir.hl7.org.uk/CareConnect-LanguageAbilityProficiency-1"/>
								<code value="E"/>
								<display value="Excellent"/>
							</coding>
						</valueCodeableConcept>
					</extension>
					<extension url="interpreterRequired">
						<valueBoolean value="false"/>
					</extension>
				</extension>
				<identifier>
					<extension url="https://fhir.hl7.org.uk/StructureDefinition/Extension-CareConnect-NHSNumberVerificationStatus-1">
						<valueCodeableConcept>
							<coding>
								<system value="https://fhir.hl7.org.uk/CareConnect-NHSNumberVerificationStatus-1"/>
								<code value="01"/>
								<display value="Number present and verified"/>
							</coding>
						</valueCodeableConcept>
					</extension>
					<system value="https://fhir.nhs.uk/Id/nhs-number"/>
					<value value="1352465790"/>
				</identifier>
				<active value="true"/>
				<name>
					<use value="usual"/>
					<family value="Gently"/>
					<given value="Opheilia"/>
					<prefix value="Miss"/>
				</name>
					<telecom>
					<system value="phone"/>
					<value value="077 7777 776"/>
					<use value="mobile"/>
				</telecom>
				<telecom>
					<system value="email"/>
					<value value="ophelia@gently.net"/>
					<use value="home"/>
				</telecom>
				<gender value="female"/>
				<birthDate value="1984-04-01"/>
				<address>
					<use value="home"/>
					<line value="22 Acacia Road"/>
					<postalCode value="BM9 6PL"/>
				</address>
				<careProvider>
					<reference value="urn:uuid:f9f24f89-646b-4a19-a6b1-cabfa3b612e1"/>
					<display value="Canvas Health Centre"/>
				</careProvider>
			</Patient>
		</resource>
	</entry>
	<!--Practitioner-Example-2-->
	<entry>
		<fullUrl value="urn:uuid:5e414a77-d394-4248-a631-00e45ddb64a0"/>
		<resource>
			<Practitioner>
				<id value="5e414a77-d394-4248-a631-00e45ddb64a0"/>
				<meta>
					<profile value="https://fhir.hl7.org.uk/StructureDefinition/CareConnect-Practitioner-1"/>
				</meta>			
				<identifier>
					<system value="https://fhir.nhs.uk/Id/sds-user-id"/>
					<value value="GP12345600"/>
				</identifier>
				<name>
					<family value="O`Reilly"/>
					<given value="C"/>
					<prefix value="Dr"/>
				</name>
				<telecom>
						<system value="phone"/>
						<value value="01234 562987"/>
						<use value="work"/>
				</telecom>
				<practitionerRole>
					<managingOrganization>
						<reference value="urn:uuid:f9f24f89-646b-4a19-a6b1-cabfa3b612e1"/>
						<display value="Canvas Health Centre"/>
					</managingOrganization>
					<role>
						<coding>
							<system value="https://fhir.hl7.org.uk/CareConnect-SDSJobRoleName-1"/>
							<code value="R0260"/>
							<display value="General Medical Practitioner"/>
						</coding>
					</role>
				</practitionerRole>
			</Practitioner>
		</resource>
	</entry>
	<!--Practitioner-Example-3-->
	<entry>
		<fullUrl value="urn:uuid:d25fd1c6-2658-4db7-9af0-86c5f95e8ec9"/>
		<resource>
			<Practitioner>
				<id value="d25fd1c6-2658-4db7-9af0-86c5f95e8ec9"/>
				<meta>
					<profile value="https://fhir.hl7.org.uk/StructureDefinition/CareConnect-Practitioner-1"/>
				</meta>
				<name>
					<family value="Crippen"/>
					<given value="H H"/>
					<prefix value="Dr"/>
				</name>
				<address>
					<line value="Rheumatology Department"/>
					<line value="St Crispin’s Hospital"/>
					<city value="Donaldstown"/>
					<postalCode value="DO5 7TP"/>
				</address>
				<practitionerRole>
					<managingOrganization>
						<reference value="urn:uuid:e1580b71-99bd-4c5b-8d54-9b420418135f"/>
						<display value="St Crispin’s Hospital"/>
					</managingOrganization>
					<role>
						<coding>
							<system value="https://fhir.hl7.org.uk/CareConnect-SDSJobRoleName-1"/>
							<code value="R0050"/>
							<display value="Consultant"/>
						</coding>
					</role>
				</practitionerRole>
			</Practitioner>
		</resource>
	</entry>
		<!--Organization-Example-1-->
	<entry>
		<fullUrl value="urn:uuid:f9f24f89-646b-4a19-a6b1-cabfa3b612e1"/>
		<resource>
			<Organization>
				<id value="f9f24f89-646b-4a19-a6b1-cabfa3b612e1"/>
				<meta>
					<profile value="https://fhir.hl7.org.uk/StructureDefinition/CareConnect-Organization-1"/>
				</meta>
				<identifier>
					<system value="https://fhir.nhs.uk/Id/ods-organization-code"/>
					<value value="A111111"/>
				</identifier>
				<type>
					<coding>
						<system value="http://hl7.org/fhir/organization-type"/>
						<code value="prov"/>
						<display value="Healthcare Provider"/>
					</coding>
				</type>
				<name value="Canvas Health Centre"/>
				<telecom>
					<system value="phone"/>
					<value value="01234 956412"/>
					<use value="work"/>
				</telecom>
				<telecom>
					<system value="email"/>
					<value value="Admin@MMC.co.uk"/>
				</telecom>
				<address>
					<use value="work"/>
					<line value="27 Acacia Road"/>
					<line value="BM9 6PM "/>
				</address>
			</Organization>
		</resource>
	</entry>
		<!--Organization-Example-2-->
	<entry>
		<fullUrl value="urn:uuid:12bba528-a08a-448b-946b-7e8008044025"/>
		<resource>
			<Organization>
				<id value="12bba528-a08a-448b-946b-7e8008044025"/>
				<meta>
					<profile value="https://fhir.hl7.org.uk/StructureDefinition/CareConnect-Organization-1"/>
				</meta>
				<identifier>
					<system value="https://fhir.nhs.uk/Id/ods-organization-code"/>
					<value value="RR8"/>
				</identifier>
				<type>
					<coding>
						<system value="http://hl7.org/fhir/organization-type"/>
						<code value="prov"/>
						<display value="Healthcare Provider"/>
					</coding>
				</type>
				<name value="St Crispin’s Hospital"/>
				<telecom>
					<system value="phone"/>
					<value value="01234 567890"/>
					<use value="work"/>
				</telecom>
				<address>
					<line value="St Crispin’s Hospital"/>
					<line value="Department of Palliative Medicine"/>
					<line value="Donaldstown"/>
					<postalCode value="DO5 7TP"/>
				</address>
			</Organization>
		</resource>
	</entry>
		<!--Location-Example-1-->
	<entry>
		<fullUrl value="urn:uuid:01bb1ccc-577b-4a4a-9fb0-9c8fe9f21fa3"/>
		<resource>
			<Location>
				<id value="01bb1ccc-577b-4a4a-9fb0-9c8fe9f21fa3"/>
				<meta>
					<profile value="https://fhir.hl7.org.uk/StructureDefinition/CareConnect-Location-1"/>
				</meta>
				<name value="St Crispin’s Hospital"/>
				<type>
					<coding>
						<system value="http://hl7.org/fhir/v3/RoleCode"/>
						<code value="HOSP"/>
						<display value="Hospital"/>
					</coding>
				</type>
			</Location>
		</resource>
	</entry>


</Bundle>
