<?xml version="1.0" encoding="UTF-8"?>
<!--Sample XML file generated by XMLSpy v2017 sp2 (http://www.altova.com)-->
<Bundle xmlns="http://hl7.org/fhir" xmlns:xsi="http://www.w3.org/2001/XMLSchema-instance" xsi:schemaLocation="http://hl7.org/fhir ../../Schemas/bundle.xsd">
	<id value="6191cc21-cb11-4d99-8cb2-2afe1c7e9d2f"/>
	<meta>
		<profile value="https://fhir.nhs.uk/StructureDefinition/cofe-document-bundle-1"/>
	</meta>
	<type value="document"/>
	<!--Outpatient Letter Composition-->
	<entry>
		<fullUrl value="urn:uuid:95ab3b52-b229-43db-a919-fa09db5e08d3"/>
		<resource>
			<Composition>
				<id value="95ab3b52-b229-43db-a919-fa09db5e08d3"/>
				<meta>
					<profile value="https://fhir.nhs.uk/StructureDefinition/cofe-opl-composition-1"/>
				</meta>
				
				<!-- Information Recipient 1 -->
				<extension url="https://fhir.nhs.uk/StructureDefinition/extension-cofe-information-recipient-1">
					<valueReference>
						<reference value="urn:uuid:8ece9986-9af0-4882-b0cf-23a96ea7b509"/>
						<display value="KAVANAGH, Patricia"/>
					</valueReference>
				</extension>
				<!-- Information Recipient 2 -->
				<extension url="https://fhir.nhs.uk/StructureDefinition/extension-cofe-information-recipient-1">
					<valueReference>
						<reference value="urn:uuid:5e414a77-d394-4248-a631-00e45ddb64a0"/>
						<display value="O`REILLY, C (Dr)"/>
					</valueReference>
				</extension>				
				<!-- Care Setting Type -->
				<extension url="https://fhir.nhs.uk/StructureDefinition/extension-cofe-care-setting-type-1">
					<valueCodeableConcept>
						<coding>
							<system value="http://snomed.info/sct"/>
							<code value="310164003"/>
							<display value="Plastic surgery service"/>
						</coding>
					</valueCodeableConcept>
				</extension>
				
				<identifier>
					<value id="2b5d459b-df79-4a2b-9b0c-95b2a7ee2ca4"/>
				</identifier>
				<date value="2015-02-17T10:00:00+00:00"/>
				<type>
					<!--Discharge Summary-->
					<coding>
						<system value="http://snomed.info/sct"/>
						<code value="373942005"/>
						<display value="Discharge summary"/>
					</coding>
				</type>
				<title value="Discharge summary"/>
				<status value="final"/>
				<confidentiality value="V"/>
				<subject>
					<reference value="urn:uuid:31686b67-9f20-4644-9a54-193d2f91de57"/>
					<display value="BECKETT, Sam (Mrs)"/>
				</subject>
				<author>
					<reference value="urn:uuid:d25fd1c6-2658-4db7-9af0-86c5f95e8ec9"/>
					<display value="O`CASEY, Shauna (Dr)"/>
				</author>
				<custodian>
					<reference value="urn:uuid:12bba528-a08a-448b-946b-7e8008044025"/>
					<display value="St Crispin’s Hospital"/>
				</custodian>
				<encounter>
					<reference value="urn:uuid:4f36b35a-ad18-4ea9-a3fb-c893f709e88a"/>
					<display value="Medical consultation on hospital inpatient"/>
				</encounter>		
				<!--Attendance details section-->	
				<section>
					<title value="Attendance details section"/>
					<code>
						<coding>
							<system value="http://snomed.info/sct"/>
							<code value="886811000000106"/>
							<display value="Attendance details section"/>
						</coding>
					</code>
					<text>
						<status value="generated"/>
						<div xmlns="http://www.w3.org/1999/xhtml">
							<table width="100%">
								<tbody>
									<tr>
										<th>Date of encounter</th>
										<td>16/05/2017</td>
									</tr>
									<tr>
										<th>Contact type</th>
										<td>First  attendance</td>
									</tr>
									<tr>
										<th>Consultation method</th>
										<td>Face-to-face</td>
									</tr>
									<tr>
										<th>Seen by</th>
										<td>Dr. Shauna O’Casey, Consultant surgeon<br/></td>
									</tr>
									<tr>
										<th></th>
										<td>Patricia Kavanagh, Skin cancer specialist nurse</td>
									</tr>	
									<tr>
										<th>Care professional present</th>
										<td>Jane Joyce, HCA</td>
										</tr>
									<tr>
											<th>Outcome</th>
											<td>Appointment to be made at a later date</td>
									</tr>
								</tbody>
							</table>
						</div>
					</text>
					<orderedBy>
						<coding>
							<system value="http://hl7.org/fhir/list-order"/>
							<code value="system"/>
							<display value="Sorted by System"/>
						</coding>
					</orderedBy>
				</section>					
				<!--Allergies and adverse reactions-->
				<section>
					<title value="Allergies and adverse reactions"/>
					<code>
						<coding>
							<system value="http://snomed.info/sct"/>
							<code value="886921000000105"/>
							<display value="Allergies and adverse reactions"/>
						</coding>
					</code>
					<text>
						<status value="generated"/>
						<div xmlns="http://www.w3.org/1999/xhtml">
							<table width="100%">
								<tbody>
								<tr>
									<th align="left">Allergies and adverse reactions</th>
								</tr>
									<tr>
										<th align="left">Causative agent</th>
										<th align="left">Description of reaction</th>
										<th align="left">Type of reaction</th>
										<th align="left">Severity</th>
										<th align="left">Probability of recurrence</th>
										<th align="left">Date first experienced</th>
									</tr>
									<tr>
										<td>Penicillin</td>
										<td>Nausea and vomiting</td>
										<td>Intolerance/Adverse.</td>
										<td>Minor</td>
										<td>Likely</td>
										<td>4 years ago</td>
									</tr>
								</tbody>
							</table>
						</div>
					</text>
					<orderedBy>
						<coding>
							<system value="http://hl7.org/fhir/list-order"/>
							<code value="system"/>
							<display value="Sorted by System"/>
						</coding>
					</orderedBy>
				<entry>
						<reference value="urn:uuid:627bd799-7a86-40bd-a931-d8526b412fa5"/>
						<display value="Allergies"/>
					</entry>
				</section>
				<!--Clinical summary-->
				<section>
					<title value="Clinical summary"/>
					<code>
						<coding>
							<system value="http://snomed.info/sct"/>
							<code value="887181000000106"/>
							<display value="Clinical summary"/>
						</coding>
					</code>
					<text>
						<status value="generated"/>
						<div xmlns="http://www.w3.org/1999/xhtml">
							<table width="100%">
								<tbody>
									<tr>
										<th>Clinical Summary</th>
									</tr>
									<tr>
										<td>This delightful lady has presented with a 10 month history of a left arm lesion that is rapidly growing and will require excisional biopsy to confirm the nature of the growth.</td>
									</tr>
								</tbody>
							</table>
						</div>
					</text>
				</section>
				<!--Diagnoses-->
				<section>
					<title value="Diagnoses"/>
					<code>
						<coding>
							<system value="http://snomed.info/sct"/>
							<code value="887161000000102"/>
							<display value="Diagnoses"/>
						</coding>
					</code>
					<text>
						<status value="generated"/>
						<div xmlns="http://www.w3.org/1999/xhtml">
					
							<br/>
						<table style="color:#000000;" width="55%" border="0">
								<tbody>
									<tr>
										<th align="left">Diagnosis</th>
									</tr>
									<tr>
										<td>1. Legion on forearm</td>						
									</tr>				
									<tr>
										<td>2. Hypertension</td>		
									</tr>				
								</tbody>
							</table>
							<br/>
							<p>I had the pleasure of meeting Mrs. Beckett in my general plastic surgery clinic, referred by Dr. William Yates, Dermatology Consultant, St Crispin’s Hospital, Donaldstown, DO1 4XP (01234) 567890.</p>
							<br/>
						</div>
					</text>
					<orderedBy>
						<coding>
							<system value="http://hl7.org/fhir/list-order"/>
							<code value="system"/>
							<display value="Sorted by System"/>
						</coding>
					</orderedBy>
					<entry>
						<reference value="urn:uuid:8197e5be-1483-48e6-bf30-842f5184d4cf"/>
						<display value="Legion on forearm"/>
					</entry>
					<entry>
						<reference value="urn:uuid:84a8fe59-7b83-4eae-a40b-170ed685524f"/>
						<display value="Hypertension"/>
					</entry>
				</section>												
				<!--Family history-->
				<section>
					<title value="Family history"/>
					<code>
						<coding>
							<system value="http://snomed.info/sct"/>
							<code value="887111000000104"/>
							<display value="Family history"/>
						</coding>
					</code>
					<text>
						<status value="generated"/>
						<div xmlns="http://www.w3.org/1999/xhtml">
							<table width="100%">
								<tbody>
									<tr>
										<th>Family history</th>
									</tr>
									<tr>
										<td>Mrs. Beckett’s father died of melanoma at 62year old.</td>
									</tr>
								</tbody>
							</table>
						</div>
					</text>
				</section>
				<!--History-->
				<section>
					<title value="History"/>
					<code>
						<coding>
							<system value="http://snomed.info/sct"/>
							<code value="717121000000105"/>
							<display value="History"/>
						</coding>
					</code>
					<text>
						<status value="generated"/>
						<div xmlns="http://www.w3.org/1999/xhtml">
							<table width="100%">
								<tbody>
									<tr>
										<th>History</th>
									</tr>
									<tr>
										<td>Potential Squamous cell carcinoma to left forearm. Rapidly growing lesion to left forearm x 10 months. Has seen dermatologists who have assessed and referred on to Plastics for surgical excision and possible skin grafting after lesion is excised.</td>
									</tr>
								</tbody>
							</table>
						</div>
					</text>
				</section>
				<!--Individual requirements-->
				<section>
					<title value="Individual requirement"/>
					<code>
						<coding>
							<system value="http://snomed.info/sct"/>
							<code value="1052901000000109"/>
							<display value="Individual requirement"/>
						</coding>
					</code>
					<text>
						<status value="generated"/>
						<div xmlns="http://www.w3.org/1999/xhtml">
							<table width="100%">
								<tbody>
									<tr>
										<th>Individual requirements</th>
									</tr>
									<tr>
										<td>Polish national with limited English - needs an interpreter</td>
									</tr>
								</tbody>
							</table>
						</div>
					</text>
				</section>
				<!--Information and advice given-->
				<section>
					<title value="Information and advice given"/>
					<code>
						<coding>
							<system value="http://snomed.info/sct"/>
							<code value="1052951000000105"/>
							<display value="Information and advice given"/>
						</coding>
					</code>
					<text>
						<status value="generated"/>
						<div xmlns="http://www.w3.org/1999/xhtml">
							<table width="100%">
								<tbody>
									<tr>
										<th align="left">Information and advice given</th>
									</tr>
									<tr>
										<td>Patient seen by the skin cancer Specialist Nurse and has been reassured of ou place.<br/><br/>I have warned her of the risk of infection, bleeding, reoperation, scarring, wound dehiscence and the need for dressings.  She understands this and is happy to be added to the waiting list.<br/><br/>
									</td>
									</tr>
								</tbody>
							</table>
						</div>
					</text>
				</section>				
				<!--Plan and requested actions-->
				<section>
					<title value="Plan and requested actions"/>
					<code>
						<coding>
							<system value="http://snomed.info/sct"/>
							<code value="887201000000105"/>
							<display value="Plan and requested actions"/>
						</coding>
					</code>
					<text>
						<status value="generated"/>
						<div xmlns="http://www.w3.org/1999/xhtml">
							<table width="100%">
								<tbody>
								<tr>
									<th align="left">Plan and requested actions for healthcare professionals</th>
								</tr>
								
									<tr>
										<td>Added to waiting list for excisional biopsy of lesion and direct closure on left forearm by Dr. Shauna O’Casey, 16/05/17</td>
									</tr>
								</tbody>
							</table>						
						</div>
					</text>
				</section>
				<!--Social context-->
				<section>
					<title value="Social context"/>
					<code>
						<coding>
							<system value="http://snomed.info/sct"/>
							<code value="887051000000101"/>
							<display value="Social context"/>
						</coding>
					</code>
					<text>
						<status value="generated"/>
						<div xmlns="http://www.w3.org/1999/xhtml">
							<table width="100%">
								<tbody>
									<tr>
										<th>Social context</th>
									</tr>
									<tr>
										<td>Mrs. Beckett lives with her husband. She is a factory worker, does not smoke and her alcohol intake is rare.</td>
									</tr>
								</tbody>
							</table>
						</div>
					</text>
				</section>
				
			</Composition>
		</resource>
	</entry>
	<!--Encounter Example 1-->
	<entry>
		<fullUrl value="urn:uuid:4f36b35a-ad18-4ea9-a3fb-c893f709e88a"/>
		<resource>
			<Encounter>
				<id value="4f36b35a-ad18-4ea9-a3fb-c893f709e88a"/>
				<meta>
					<profile value="https://fhir.hl7.org.uk/StructureDefinition/CareConnect-Encounter-1"/>
				</meta>
				<identifier>
					<system value="https://tools.ietf.org/html/rfc4122"/>
					<value value="13c73015-d8fa-4844-8d68-4f856883eca8"/>
				</identifier>
				<status value="finished"/>
				<class value="inpatient"/>
				<type>
					<coding>
						<system value="http://snomed.info/sct"/>
						<code value="24882007"/>
						<display value="Medical consultation on hospital inpatient"/>
					</coding>
				</type>
				<patient>
					<reference value="urn:uuid:31686b67-9f20-4644-9a54-193d2f91de57"/>
					<display value="BECKETT, Sam (Mrs)"/>
				</patient>
				<period>
					<start value="2017-05-16T09:00:00+00:00"/>
					<end value="2017-05-16T09:00:00+00:00"/>
				</period>
				<hospitalization>
					<admitSource>
						<coding>
							<system value="http://hl7.org/fhir/admit-source"/>
							<code value="gp"/>
							<display value="General Practitioner referral	"/>
						</coding>
					</admitSource>
					<admittingDiagnosis>
						<reference value="urn:uuid:6b639186-a9cd-43b0-9880-9ddb7902b934"/>
						<display value="Legion on forearm"/>
					</admittingDiagnosis>
					<dischargeDisposition>
						<coding>
							<system value="http://hl7.org/fhir/discharge-disposition"/>
							<code value="home"/>
							<display value="Home"/>
						</coding>
					</dischargeDisposition>
					<dischargeDiagnosis>
						<reference value="urn:uuid:8197e5be-1483-48e6-bf30-842f5184d4cf"/>
						<display value="Legion on forearm"/>
					</dischargeDiagnosis>
					<dischargeDiagnosis>
						<reference value="urn:uuid:84a8fe59-7b83-4eae-a40b-170ed685524f"/>
						<display value="Hypertension"/>
					</dischargeDiagnosis>
				</hospitalization>
				<location>
					<location>
						<reference value="urn:uuid:01bb1ccc-577b-4a4a-9fb0-9c8fe9f21fa3"/>
						<display value="Hospital"/>
					</location>
				</location>
			</Encounter>
		</resource>
	</entry>
	<!--Allergies List-->
	<entry>
		<fullUrl value="urn:uuid:627bd799-7a86-40bd-a931-d8526b412fa5"/>
		<resource>
			<List>
				<id value="627bd799-7a86-40bd-a931-d8526b412fa5"/>
				<meta>
					<profile value="https://fhir.nhs.uk/StructureDefinition/COFE-Allergies-List-1"/>
				</meta>
				<identifier>
					<system value="https://tools.ietf.org/html/rfc4122"/>
					<value value="9ca85d9b-c54c-4134-8fcc-3552796c7340"/>
				</identifier>
				<code>
					<coding>
						<system value="http://hl7.org/fhir/list-example-use-codes"/>
						<code value="allergies"/>
						<display value="Allergies"/>
					</coding>
				</code>
								<subject>
					<reference value="urn:uuid:31686b67-9f20-4644-9a54-193d2f91de57"/>
					<display value="BECKETT, Sam (Mrs)"/>
				</subject>
				<encounter>
					<reference value="urn:uuid:4f36b35a-ad18-4ea9-a3fb-c893f709e88a"/>
				</encounter>
				<status value="current"/>
				<mode value="snapshot"/>
				<entry>
					<item>
						<reference value="urn:uuid:9a1c380c-e8b0-4814-aefc-ee69d39b1079"/>
					</item>
				</entry>
			</List>
		</resource>
	</entry>
	<!--Allergy Intolerance Example 1-->
	<entry>
		<fullUrl value="urn:uuid:9a1c380c-e8b0-4814-aefc-ee69d39b1079"/>
		<resource>
			<AllergyIntolerance>
				<id value="9a1c380c-e8b0-4814-aefc-ee69d39b1079"/>
				<meta>
					<profile value="https://fhir.hl7.org.uk/StructureDefinition/CareConnect-AllergyIntolerance-1"/>
				</meta>
				<extension url="https://fhir.hl7.org.uk/StructureDefinition/Extension-CareConnect-ProbabilityOfRecurrence-1">
					<valueString value="Likely"/>
				</extension>
				<identifier>
					<system value="https://tools.ietf.org/html/rfc4122"/>
					<value value="06d65f0f-117a-43c6-84ea-f28c3bd664a2"/>
				</identifier>
				<onset value="2015-02-12T12:00:00+00:00"/>
				<patient>
					<reference value="urn:uuid:31686b67-9f20-4644-9a54-193d2f91de57"/>
					<display value="BECKETT, Sam (Mrs)"/>
				</patient>
				<substance>
					<coding>
						<system value="http://snomed.info/sct"/>
						<code value="373270004"/>
						<display value="Penicillin"/>
					</coding>
				</substance>
				<status value="active"/>
				<type value="intolerance"/>
				<category value="medication"/>
				<reaction>
					<manifestation>
						<coding>
							<system value="http://snomed.info/sct"/>
							<code value="271807003"/>
							<display value="Eruption"/>
						</coding>
					</manifestation>
				</reaction>
			</AllergyIntolerance>
		</resource>
	</entry>
	<!--Allergy Flag Example 1-->
	<entry>
		<fullUrl value="urn:uuid:61be6900-bc3c-4a28-96dc-746381b7c1be"/>
		<resource>
			<Flag>
				<id value="61be6900-bc3c-4a28-96dc-746381b7c1be"/>
				<meta>
					<profile value="https://fhir.nhs.uk/StructureDefinition/COFE-Allergy-Flag-1"/>
				</meta>
				<extension url="https://fhir.nhs.uk/StructureDefinition/extension-COFE-AllergyFlagAssociation-1">
					<valueReference>
						<reference value="urn:uuid:9a1c380c-e8b0-4814-aefc-ee69d39b1079"/>
					</valueReference>
				</extension>
				<identifier>
					<system value="https://tools.ietf.org/html/rfc4122"/>
					<value value="2861cc7e-8916-4009-9aee-4802c3fa951d"/>
				</identifier>
				<category>
					<coding>
						<system value="http://snomed.info/sct"/>
						<code value="886921000000105"/>
						<display value="Allergies and adverse reactions"/>
					</coding>
				</category>
				<status value="active"/>
				<subject>
					<reference value="urn:uuid:31686b67-9f20-4644-9a54-193d2f91de57"/>
					<display value="BECKETT, Sam (Mrs)"/>
				</subject>
				<code>
					<coding>
						<system value="http://snomed.info/sct"/>
						<code value="416098002"/>
						<display value="Drug allergy"/>
					</coding>
				</code>
			</Flag>
		</resource>
	</entry>
		<!--Diagnoses 1-->
	<entry>
		<fullUrl value="urn:uuid:5590e1f9-c85b-4e14-be4c-efb6aa693fa5"/>
		<resource>
			<Condition>
				<id value="5590e1f9-c85b-4e14-be4c-efb6aa693fa5"/>
				<meta>
					<profile value="https://fhir.hl7.org.uk/StructureDefinition/CareConnect-Condition-1"/>
				</meta>
				<identifier>
					<system value="https://tools.ietf.org/html/rfc4122"/>
					<value value="c4b2d64e-23f3-4055-8299-141aacf9c16c"/>
				</identifier>
				<patient>
					<reference value="urn:uuid:31686b67-9f20-4644-9a54-193d2f91de57"/>
					<display value="BECKETT, Sam (Mrs)"/>
				</patient>
				<encounter>
					<reference value="urn:uuid:4f36b35a-ad18-4ea9-a3fb-c893f709e88a"/>
				</encounter>
				<asserter>
					<reference value="urn:uuid:5e414a77-d394-4248-a631-00e45ddb64a0"/>
						<display value="O`REILLY, C (Dr)"/>
				</asserter>
				<dateRecorded value="2017-05-16"/>
				<code>
					<coding>
						<system value="http://snomed.info/sct"/>
						<code value="7527002"/>
						<display value="Genus Legionella"/>
					</coding>
					<text value="Legion on forearm"/>
				</code>
				<category>
					<coding>
						<system value="https://fhir.hl7.org.uk/CareConnect-ConditionCategory-1"/>
						<code value="diagnosis"/>
						<display value="Diagnosis"/>
					</coding>
				</category>
				<clinicalStatus value="active"/>
				<verificationStatus value="confirmed"/>
				<onsetDateTime value="2015-03-15T12:00:00+00:00"/>
			</Condition>
		</resource>
	</entry>
	<!--Diagnoses 2-->
	<entry>
		<fullUrl value="urn:uuid:7400a34c-28d9-4668-8b52-90866efc5356"/>
		<resource>
			<Condition>
				<id value="7400a34c-28d9-4668-8b52-90866efc5356"/>
				<meta>
					<profile value="https://fhir.hl7.org.uk/StructureDefinition/CareConnect-Condition-1"/>
				</meta>
				<identifier>
					<system value="https://tools.ietf.org/html/rfc4122"/>
					<value value="c4b2d64e-23f3-4055-8299-141aacf9c16c"/>
				</identifier>
				<patient>
					<reference value="urn:uuid:31686b67-9f20-4644-9a54-193d2f91de57"/>
					<display value="BECKETT, Sam (Mrs)"/>
				</patient>
				<encounter>
					<reference value="urn:uuid:4f36b35a-ad18-4ea9-a3fb-c893f709e88a"/>
				</encounter>
				<asserter>
					<reference value="urn:uuid:5e414a77-d394-4248-a631-00e45ddb64a0"/>
						<display value="O`REILLY, C (Dr)"/>
				</asserter>
				<dateRecorded value="2015-03-05"/>
				<code>
					<coding>
						<system value="http://snomed.info/sct"/>
						<code value="38341003"/>
						<display value="Hypertension"/>
					</coding>
				</code>
				<category>
					<coding>
						<system value="https://fhir.hl7.org.uk/CareConnect-ConditionCategory-1"/>
						<code value="diagnosis"/>
						<display value="Diagnosis"/>
					</coding>
				</category>
				<clinicalStatus value="active"/>
				<verificationStatus value="confirmed"/>
				<onsetDateTime value="2017-05-15T12:00:00+00:00"/>
			</Condition>
		</resource>
	</entry>
				<!--Examination observation 1-->
<entry>
	<fullUrl value="urn:uuid:36766ef8-ec0a-4004-a1cc-b085da3e726c"/>
	<resource>	
		<Observation>
		<id value="36766ef8-ec0a-4004-a1cc-b085da3e726c"/>
		<meta>
		<!--Identifies the profile being used-->
		<profile value="https://fhir.hl7.org.uk/StructureDefinition/CareConnect-Observation-1"/>
		</meta>
		<identifier>
		<system value="https://tools.ietf.org/html/rfc4122"/>
			<value value="298fdf13-abff-4ce0-ad79-5aad9cb6d031"/>
		</identifier>
		<status value="final"/>
		<code>
			<coding>
				<system value="http://snomed.info/sct"/>
				<code value="302199004"/>
				<display value="Examination"/>
			</coding>
		</code>
		<subject>
			<reference value="urn:uuid:31686b67-9f20-4644-9a54-193d2f91de57"/>
			<display value="BECKETT, Sam (Mrs)"/>
		</subject>
		<effectiveDateTime value="2016-01-02T08:39:16+00:00"/>
		<performer>
			<reference value="urn:uuid:5e414a77-d394-4248-a631-00e45ddb64a0"/>
			<display value="O`REILLY, C (Dr)"/>
		</performer>
		<comments value="Mrs. Beckett is well. There are no skin lesions to the body other than left forearm. She has a 3x2cm scaly lesion which is centrally ulcerated. There was no evidence of left axillary or cervical node involvement."/>
		</Observation>	
	</resource>
	</entry>
				<!--Family history observation 1-->
<entry>
	<fullUrl value="urn:uuid:b2fe7f0a-06cc-429c-9b43-7b0f612f7690"/>
	<resource>	
		<Observation>
		<id value="b2fe7f0a-06cc-429c-9b43-7b0f612f7690"/>
		<meta>
		<!--Identifies the profile being used-->
		<profile value="https://fhir.hl7.org.uk/StructureDefinition/CareConnect-Observation-1"/>
		</meta>
		<identifier>
		<system value="https://tools.ietf.org/html/rfc4122"/>
			<value value="2683c8b1-9ed5-4de4-b00d-f69fbb34cbdb"/>
		</identifier>
		<status value="final"/>
		<code>
			<coding>
				<system value="http://snomed.info/sct"/>
				<code value="163051000000102"/>
				<display value="Family history"/>
			</coding>
		</code>
		<subject>
			<reference value="urn:uuid:31686b67-9f20-4644-9a54-193d2f91de57"/>
			<display value="BECKETT, Sam (Mrs)"/>
		</subject>
		<effectiveDateTime value="2016-01-02T08:39:16+00:00"/>
		<performer>
			<reference value="urn:uuid:5e414a77-d394-4248-a631-00e45ddb64a0"/>
			<display value="O`REILLY, C (Dr)"/>
		</performer>
		<comments value="Mrs. Beckett’s father died of melanoma at 62year old."/>
		</Observation>	
	</resource>
	</entry>
			<!--history observation 1-->
<entry>
	<fullUrl value="urn:uuid:4753afb2-ec1d-4dcc-be4b-a7c687a3cf6c"/>
	<resource>	
		<Observation>
		<id value="4753afb2-ec1d-4dcc-be4b-a7c687a3cf6c"/>
		<meta>
		<!--Identifies the profile being used-->
		<profile value="https://fhir.hl7.org.uk/StructureDefinition/CareConnect-Observation-1"/>
		</meta>
		<identifier>
		<system value="https://tools.ietf.org/html/rfc4122"/>
			<value value="cfd8258e-4a72-4b89-a916-68cc3bc604fd"/>
		</identifier>
		<status value="final"/>
		<code>
			<coding>
				<system value="http://snomed.info/sct"/>
				<code value="717121000000105"/>
				<display value="History"/>
			</coding>
		</code>
		<subject>
			<reference value="urn:uuid:31686b67-9f20-4644-9a54-193d2f91de57"/>
			<display value="BECKETT, Sam (Mrs)"/>
		</subject>
		<effectiveDateTime value="2016-01-02T08:39:16+00:00"/>
		<performer>
			<reference value="urn:uuid:5e414a77-d394-4248-a631-00e45ddb64a0"/>
			<display value="O`REILLY, C (Dr)"/>
		</performer>
		<comments value="Potential Squamous cell carcinoma to left forearm. Rapidly growing lesion to left forearm x 10 months. Has seen dermatologists who have assessed and referred on to Plastics for surgical excision and possible skin grafting after lesion is excised."/>
		</Observation>	
	</resource>
	</entry>
				<!--Individual requirements-->
<entry>
	<fullUrl value="urn:uuid:e95cc1ed-fc27-46c7-88fb-96daaf6e7553"/>
	<resource>	
		<Observation>
		<id value="e95cc1ed-fc27-46c7-88fb-96daaf6e7553"/>
		<meta>
		<!--Identifies the profile being used-->
		<profile value="https://fhir.hl7.org.uk/StructureDefinition/CareConnect-Observation-1"/>
		</meta>
		<identifier>
		<system value="https://tools.ietf.org/html/rfc4122"/>
			<value value="cf414556-767e-4cd6-bb1b-d5c66b8816d6"/>
		</identifier>
		<status value="final"/>
		<code>
			<coding>
				<system value="http://snomed.info/sct"/>
				<code value="1052901000000109"/>
				<display value=" Individual requirement"/>
			</coding>
		</code>
		<subject>
			<reference value="urn:uuid:31686b67-9f20-4644-9a54-193d2f91de57"/>
			<display value="BECKETT, Sam (Mrs)"/>
		</subject>
		<effectiveDateTime value="2016-01-02T08:39:16+00:00"/>
		<performer>
			<reference value="urn:uuid:5e414a77-d394-4248-a631-00e45ddb64a0"/>
			<display value="O`REILLY, C (Dr)"/>
		</performer>
		<comments value="Polish national with limited English - needs an interpreter."/>
		</Observation>	
	</resource>
	</entry>
		<!--Social context-->
<entry>
	<fullUrl value="urn:uuid:924f4cc8-84a5-427b-8c40-270c2e14fc21"/>
	<resource>	
		<Observation>
		<id value="924f4cc8-84a5-427b-8c40-270c2e14fc21"/>
		<meta>
		<!--Identifies the profile being used-->
		<profile value="https://fhir.hl7.org.uk/StructureDefinition/CareConnect-Observation-1"/>
		</meta>
		<identifier>
		<system value="https://tools.ietf.org/html/rfc4122"/>
			<value value="4493a574-d16f-4b97-a38c-56ad39e9748f"/>
		</identifier>
		<status value="final"/>
		<code>
			<coding>
				<system value="http://snomed.info/sct"/>
				<code value="887051000000101"/>
				<display value=" Social context"/>
			</coding>
		</code>
		<subject>
			<reference value="urn:uuid:31686b67-9f20-4644-9a54-193d2f91de57"/>
			<display value="BECKETT, Sam (Mrs)"/>
		</subject>
		<effectiveDateTime value="2016-01-02T08:39:16+00:00"/>
		<performer>
			<reference value="urn:uuid:5e414a77-d394-4248-a631-00e45ddb64a0"/>
			<display value="O`REILLY, C (Dr)"/>
		</performer>
		<comments value="Mrs. Beckett lives with her husband. She is a factory worker, does not smoke and her alcohol intake is rare."/>
		</Observation>	
	</resource>
	</entry>

			<!--Patient-Example-1-->
	<entry>
		<fullUrl value="31686b67-9f20-4644-9a54-193d2f91de57"/>
		<resource>
			<Patient>
				<id value="31686b67-9f20-4644-9a54-193d2f91de57"/>
				<meta>
					<profile value="https://fhir.hl7.org.uk/StructureDefinition/CareConnect-Patient-1"/>
				</meta>
				<extension url="https://fhir.hl7.org.uk/StructureDefinition/Extension-CareConnect-EthnicCategory-1">
					<valueCodeableConcept>
						<coding>
							<system value="https://fhir.hl7.org.uk/CareConnect-EthnicCategory-1"/>
							<code value="A"/>
							<display value="British, Mixed British"/>
						</coding>
					</valueCodeableConcept>
				</extension>
				<extension url="https://fhir.hl7.org.uk/StructureDefinition/Extension-CareConnect-ReligiousAffiliation-1">
					<valueCodeableConcept>
						<coding>
							<system value="http://snomed.info/sct"/>
							<code value="80587008"/>
							<display value="Jehovah's Witness"/>
						</coding>
					</valueCodeableConcept>
				</extension>
				<extension url="http://hl7.org/fhir/StructureDefinition/patient-cadavericDonor">
					<valueBoolean value="false"/>
				</extension>
				<extension url="https://fhir.hl7.org.uk/StructureDefinition/Extension-CareConnect-ResidentialStatus-1">
					<valueCodeableConcept>
						<coding>
							<system value="https://fhir.hl7.org.uk/CareConnect-ResidentialStatus-1"/>
							<code value="H"/>
							<display value="UK Resident"/>
						</coding>
					</valueCodeableConcept>
				</extension>
				<extension url="https://fhir.hl7.org.uk/StructureDefinition/Extension-CareConnect-TreatmentCategory-1">
					<valueCodeableConcept>
						<coding>
							<system value="https://fhir.hl7.org.uk/CareConnect-TreatmentCategory-1"/>
							<code value="8"/>
							<display value="Not applicable"/>
						</coding>
					</valueCodeableConcept>
				</extension>
				<extension url="https://fhir.hl7.org.uk/StructureDefinition/Extension-CareConnect-NHSCommunication-1">
					<extension url="language">
						<valueCodeableConcept>
							<coding>
								<system value="https://fhir.hl7.org.uk/CareConnect-HumanLanguage-1"/>
								<code value="en"/>
								<display value="English"/>
							</coding>
						</valueCodeableConcept>
					</extension>
					<extension url="preferred">
						<valueBoolean value="true"/>
					</extension>
					<extension url="modeOfCommunication">
						<valueCodeableConcept>
							<coding>
								<system value="https://fhir.hl7.org.uk/CareConnect-LanguageAbilityMode-1"/>
								<code value="ESP"/>
								<display value="Expressed spoken"/>
							</coding>
						</valueCodeableConcept>
					</extension>
					<extension url="modeOfCommunication">
						<valueCodeableConcept>
							<coding>
								<system value="https://fhir.hl7.org.uk/CareConnect-LanguageAbilityMode-1"/>
								<code value="RWR"/>
								<display value="Received written"/>
							</coding>
						</valueCodeableConcept>
					</extension>
					<extension url="communicationProficiency">
						<valueCodeableConcept>
							<coding>
								<system value="https://fhir.hl7.org.uk/CareConnect-LanguageAbilityProficiency-1"/>
								<code value="E"/>
								<display value="Excellent"/>
							</coding>
						</valueCodeableConcept>
					</extension>
					<extension url="interpreterRequired">
						<valueBoolean value="false"/>
					</extension>
				</extension>
				<identifier>
					<extension url="https://fhir.hl7.org.uk/StructureDefinition/Extension-CareConnect-NHSNumberVerificationStatus-1">
						<valueCodeableConcept>
							<coding>
								<system value="https://fhir.hl7.org.uk/CareConnect-NHSNumberVerificationStatus-1"/>
								<code value="01"/>
								<display value="Number present and verified"/>
							</coding>
						</valueCodeableConcept>
					</extension>
					<system value="https://fhir.nhs.uk/Id/nhs-number"/>
					<value value="1352465790"/>
				</identifier>
				<active value="true"/>
				<name>
					<use value="usual"/>
					<family value="Beckett"/>
					<given value="Sam"/>
					<prefix value="Mrs"/>
				</name>
					<telecom>
					<system value="phone"/>
					<value value="077 1234 7982"/>
					<use value="mobile"/>
				</telecom>
				<telecom>
					<system value="email"/>
					<value value="sam@beckett.net"/>
					<use value="home"/>
				</telecom>
				<gender value="female"/>
				<birthDate value="1973-03-02"/>
				<address>
					<use value="home"/>
					<line value="34 Acacia Road"/>
					<postalCode value="BM9 6PL"/>
				</address>
				<careProvider>
					<reference value="urn:uuid:f9f24f89-646b-4a19-a6b1-cabfa3b612e1"/>
					<display value="Canvas Health Centre"/>
				</careProvider>
			</Patient>
		</resource>
	</entry>
		<!--Practitioner-Example-1-->
	<entry>
		<fullUrl value="8ece9986-9af0-4882-b0cf-23a96ea7b509"/>
		<resource>
			<Practitioner>
				<id value="8ece9986-9af0-4882-b0cf-23a96ea7b509"/>
				<meta>
					<profile value="https://fhir.hl7.org.uk/StructureDefinition/CareConnect-Practitioner-1"/>
				</meta>
				<name>
					<family value="Kavanagh"/>
					<given value="Patricia"/>
				</name>
				<practitionerRole>
					<managingOrganization>
						<reference value="urn:uuid:12bba528-a08a-448b-946b-7e8008044025"/>
						<display value="St Crispin’s Hospital"/>
					</managingOrganization>
					<role>
						<coding>
							<system value="https://fhir.hl7.org.uk/CareConnect-SDSJobRoleName-1"/>
							<code value="R0600"/>
							<display value="Specialist Nurse Practitioner"/>
						</coding>
					</role>
				</practitionerRole>
			</Practitioner>
		</resource>
	</entry>
		<!--Practitioner-Example-2-->
	<entry>
		<fullUrl value="5e414a77-d394-4248-a631-00e45ddb64a0"/>
		<resource>
			<Practitioner>
				<id value="5e414a77-d394-4248-a631-00e45ddb64a0"/>
				<meta>
					<profile value="https://fhir.hl7.org.uk/StructureDefinition/CareConnect-Practitioner-1"/>
				</meta>
				<identifier>
					<system value="https://fhir.nhs.uk/Id/sds-user-id"/>
					<value value="GP12345600"/>
				</identifier>
				<name>
					<family value="O`Reilly"/>
					<given value="C"/>
					<prefix value="Dr"/>
				</name>
				<telecom>
						<system value="phone"/>
						<value value="01234 562987"/>
						<use value="work"/>
				</telecom>
				<practitionerRole>
					<managingOrganization>
						<reference value="urn:uuid:f9f24f89-646b-4a19-a6b1-cabfa3b612e1"/>
						<display value="Canvas Health Centre"/>
					</managingOrganization>
					<role>
						<coding>
							<system value="https://fhir.hl7.org.uk/CareConnect-SDSJobRoleName-1"/>
							<code value="R0260"/>
							<display value="General Medical Practitioner"/>
						</coding>
					</role>
				</practitionerRole>
			</Practitioner>
		</resource>
	</entry>
		<!--Practitioner-Example-3-->
	<entry>
		<fullUrl value="d25fd1c6-2658-4db7-9af0-86c5f95e8ec9"/>
		<resource>
			<Practitioner>
				<id value="d25fd1c6-2658-4db7-9af0-86c5f95e8ec9"/>
				<meta>
					<profile value="https://fhir.hl7.org.uk/StructureDefinition/CareConnect-Practitioner-1"/>
				</meta>
				<name>
					<family value="O`casey"/>
					<given value="Shauna"/>
					<prefix value="Dr"/>
				</name>
				<address>
					<line value="St Crispin’s Hospital"/>
					<line value="General Plastic Surgery Clinic"/>
					<city value="Donaldstown"/>
					<postalCode value="DO5 7TP"/>
				</address>
				<practitionerRole>
					<managingOrganization>
						<reference value="urn:uuid:e1580b71-99bd-4c5b-8d54-9b420418135f"/>
						<display value="St Crispin’s Hospital"/>
					</managingOrganization>
					<role>
						<coding>
							<system value="https://fhir.hl7.org.uk/CareConnect-SDSJobRoleName-1"/>
							<code value="R0050"/>
							<display value="Consultant"/>
						</coding>
					</role>
				</practitionerRole>
			</Practitioner>
		</resource>
	</entry>
	<!--Organization-Example-1-->
	<entry>
		<fullUrl value="urn:uuid:f9f24f89-646b-4a19-a6b1-cabfa3b612e1"/>
		<resource>
			<Organization>
				<id value="f9f24f89-646b-4a19-a6b1-cabfa3b612e1"/>
				<meta>
					<profile value="https://fhir.hl7.org.uk/StructureDefinition/CareConnect-Organization-1"/>
				</meta>
				<identifier>
					<system value="https://fhir.nhs.uk/Id/ods-organization-code"/>
					<value value="A111111"/>
				</identifier>
				<type>
					<coding>
						<system value="http://hl7.org/fhir/organization-type"/>
						<code value="prov"/>
						<display value="Healthcare Provider"/>
					</coding>
				</type>
				<name value="Canvas Health Centre"/>
				<telecom>
					<system value="phone"/>
					<value value="01234 956412"/>
					<use value="work"/>
				</telecom>
				<telecom>
					<system value="email"/>
					<value value="Admin@MMC.co.uk"/>
				</telecom>
				<address>
					<use value="work"/>
					<line value="27 Acacia Road"/>
					<line value="BM9 6PM "/>
				</address>
			</Organization>
		</resource>
	</entry>
	<!--Organization-Example-2-->
	<entry>
		<fullUrl value="urn:uuid:12bba528-a08a-448b-946b-7e8008044025"/>
		<resource>
			<Organization>
				<id value="12bba528-a08a-448b-946b-7e8008044025"/>
				<meta>
					<profile value="https://fhir.hl7.org.uk/StructureDefinition/CareConnect-Organization-1"/>
				</meta>
				<identifier>
					<system value="https://fhir.nhs.uk/Id/ods-organization-code"/>
					<value value="RR8"/>
				</identifier>
				<type>
					<coding>
						<system value="http://hl7.org/fhir/organization-type"/>
						<code value="prov"/>
						<display value="Healthcare Provider"/>
					</coding>
				</type>
				<name value="St Crispin’s Hospital"/>
				<telecom>
					<system value="phone"/>
					<value value="01234 567890"/>
					<use value="work"/>
				</telecom>
				<address>
					<line value="St Crispin’s Hospital"/>
					<line value="Department of Palliative Medicine"/>
					<line value="Donaldstown"/>
					<postalCode value="DO5 7TP"/>
				</address>
			</Organization>
		</resource>
	</entry>
	<!--Location-Example-1-->
	<entry>
		<fullUrl value="urn:uuid:01bb1ccc-577b-4a4a-9fb0-9c8fe9f21fa3"/>
		<resource>
			<Location>
				<id value="01bb1ccc-577b-4a4a-9fb0-9c8fe9f21fa3"/>
				<meta>
					<profile value="https://fhir.hl7.org.uk/StructureDefinition/CareConnect-Location-1"/>
				</meta>
				<name value="St Crispin’s Hospital"/>
				<type>
					<coding>
						<system value="http://hl7.org/fhir/v3/RoleCode"/>
						<code value="HOSP"/>
						<display value="Hospital"/>
					</coding>
				</type>
			</Location>
		</resource>
	</entry>

</Bundle>
