<?xml version="1.0" encoding="UTF-8"?>
<!--Sample XML file generated by XMLSpy v2017 sp2 (http://www.altova.com)-->
<Bundle xmlns="http://hl7.org/fhir" xmlns:xsi="http://www.w3.org/2001/XMLSchema-instance" xsi:schemaLocation="http://hl7.org/fhir ../../Schemas/bundle.xsd">
	<id value="6191cc21-cb11-4d99-8cb2-2afe1c7e9d2f"/>
	<meta>
		<profile value="https://fhir.nhs.uk/StructureDefinition/cofe-document-bundle-1"/>
	</meta>
	<type value="document"/>
	<!--Outpatient Letter Composition-->
	<entry>
		<fullUrl value="urn:uuid:95ab3b52-b229-43db-a919-fa09db5e08d3"/>
		<resource>
			<Composition>
				<id value="95ab3b52-b229-43db-a919-fa09db5e08d3"/>
				<meta>
					<profile value="https://fhir.nhs.uk/StructureDefinition/cofe-opl-composition-1"/>
				</meta>
				
				<!-- Information Recipient 1 -->
				<extension url="https://fhir.nhs.uk/StructureDefinition/extension-cofe-information-recipient-1">
					<valueReference>
						<reference value="8ece9986-9af0-4882-b0cf-23a96ea7b509"/>
						<display value="HALL, Sarah"/>
					</valueReference>
				</extension>
				<!-- Information Recipient 2 -->
				<extension url="https://fhir.nhs.uk/StructureDefinition/extension-cofe-information-recipient-1">
					<valueReference>
						<reference value="5e414a77-d394-4248-a631-00e45ddb64a0"/>
						<display value="O`REILLY, C (Dr)"/>
					</valueReference>
				</extension>				
				<!-- Care Setting Type -->
				<extension url="https://fhir.nhs.uk/StructureDefinition/extension-cofe-care-setting-type-1">
					<valueCodeableConcept>
						<coding>
							<system value="http://snomed.info/sct"/>
							<code value="725311000000101"/>
							<display value="Paediatrics"/>
						</coding>
					</valueCodeableConcept>
				</extension>
				
				<identifier>
					<value id="2b5d459b-df79-4a2b-9b0c-95b2a7ee2ca4"/>
				</identifier>
				<date value="2015-02-17T10:00:00+00:00"/>
				<type>
					<!--Discharge Summary-->
					<coding>
						<system value="http://snomed.info/sct"/>
						<code value="373942005"/>
						<display value="Discharge summary"/>
					</coding>
				</type>
				<title value="Discharge summary"/>
				<status value="final"/>
				<confidentiality value="V"/>
				<subject>
					<reference value="urn:uuid:31686b67-9f20-4644-9a54-193d2f91de57"/>
					<display value="JONES, Mary (Miss)"/>
				</subject>
				<author>
					<reference value="urn:uuid:d25fd1c6-2658-4db7-9af0-86c5f95e8ec9"/>
					<display value="O`CASEY, Shauna (Dr)"/>
				</author>
				<custodian>
					<reference value="urn:uuid:12bba528-a08a-448b-946b-7e8008044025"/>
					<display value="Adobe Health Centre"/>
				</custodian>
				<encounter>
					<reference value="urn:uuid:4f36b35a-ad18-4ea9-a3fb-c893f709e88a"/>
					<display value="Medical consultation on outpatient"/>
				</encounter>		
				<!--Attendance details section-->	
				<section>
					<title value="Attendance details section"/>
					<code>
						<coding>
							<system value="http://snomed.info/sct"/>
							<code value="886811000000106"/>
							<display value="Attendance details section"/>
						</coding>
					</code>
					<text>
						<status value="generated"/>
						<div xmlns="http://www.w3.org/1999/xhtml">
							<table width="100%">
								<tbody>
									<tr>
										<th>Date of encounter</th>
										<td>16/05/2017</td>
									</tr>
									<tr>
										<th>Contact type</th>
										<td>First  attendance</td>
									</tr>
									<tr>
										<th>Consultation method</th>
										<td>Face-to-face</td>
									</tr>
									<tr>
										<th>Seen by</th>
										<td>Dr. Shauna O’Casey, Consultant surgeon<br/></td>
									</tr>
									<tr>
										<th></th>
										<td>Patricia Kavanagh, Skin cancer specialist nurse</td>
									</tr>	
									<tr>
										<th>Care professional present</th>
										<td>Jane Joyce, HCA</td>
										</tr>
									<tr>
											<th>Outcome</th>
											<td>Appointment to be made at a later date</td>
									</tr>
								</tbody>
							</table>
						</div>
					</text>
					<orderedBy>
						<coding>
							<system value="http://hl7.org/fhir/list-order"/>
							<code value="system"/>
							<display value="Sorted by System"/>
						</coding>
					</orderedBy>
					<entry>
						<reference value="urn:uuid:c37a3a1a-0895-44c4-a79a-f7b7bb425e47"/>
					</entry>
				</section>					
				<!--Allergies and adverse reactions-->
				<section>
					<title value="Allergies and adverse reactions"/>
					<code>
						<coding>
							<system value="http://snomed.info/sct"/>
							<code value="886921000000105"/>
							<display value="Allergies and adverse reactions"/>
						</coding>
					</code>
					<text>
						<status value="generated"/>
						<div xmlns="http://www.w3.org/1999/xhtml">
							<table width="100%">
								<tbody>
								<tr>
									<th align="left">Allergies and adverse reactions</th>
								</tr>
									<tr>
										<td>No known allergies or adverse reactions.</td>
									</tr>
								</tbody>
							</table>
						</div>
					</text>
					<orderedBy>
						<coding>
							<system value="http://hl7.org/fhir/list-order"/>
							<code value="system"/>
							<display value="Sorted by System"/>
						</coding>
					</orderedBy>
		<!--			<entry>
						<reference value="urn:uuid:627bd799-7a86-40bd-a931-d8526b412fa5"/>
						<display value="Allergies"/>
					</entry>-->
				</section>
				<!--Clinical summary-->
				<section>
					<title value="Clinical summary"/>
					<code>
						<coding>
							<system value="http://snomed.info/sct"/>
							<code value="887181000000106"/>
							<display value="Clinical summary"/>
						</coding>
					</code>
					<text>
						<status value="generated"/>
						<div xmlns="http://www.w3.org/1999/xhtml">
							<table width="100%">
								<tbody>
									<tr>
										<th align="left">Clinical Summary</th>
									</tr>
									<tr>
										<td>Mary attended today for a scheduled review of tonic-clonic seizures and gastro-oesophageal reflux.<br/>Mary has been well. However she is now having on average four tonic-clonic seizures a day. Her mother has had to give her rectal diazepam on two occasions but she has not needed to go to hospital. She had a PEG inserted in April 2017 and her reflux has reduced considerably since then. She has increasing spasticity of right hip and more frequent tonic-clonic convulsions.</td>
									</tr>
								</tbody>
							</table>
						</div>
					</text>
				</section>
				<!--Diagnoses-->
				<section>
					<title value="Diagnoses"/>
					<code>
						<coding>
							<system value="http://snomed.info/sct"/>
							<code value="887161000000102"/>
							<display value="Diagnoses"/>
						</coding>
					</code>
					<text>
						<status value="generated"/>
						<div xmlns="http://www.w3.org/1999/xhtml">
					
							<br/>
						<table style="color:#000000;" width="55%" border="0">
								<tbody>
									<tr>
										<th align="left">Diagnosis</th>
									</tr>
									<tr>
										<td>1.	Tonic-clonic seizures</td>						
									</tr>				
									<tr>
										<td>2.	Gastro-oesophageal reflux</td>		
									</tr>
									<tr>
										<td>3.	Spastic quadriplegia secondary to birth asphyxia</td>		
									</tr>
									<tr>
										<td>4.	Cortical visual impairment</td>		
									</tr>
									<tr>
										<td>5.	Bilateral convergent squint</td>		
									</tr>
									<tr>
										<td>6.	General learning difficulties</td>		
									</tr>
								</tbody>
							</table>
							<br/>
							<p>I had the pleasure of seeing Mary and her mother Sally in my outpatient clinic today.</p>
							<br/>
						</div>
					</text>
					<orderedBy>
						<coding>
							<system value="http://hl7.org/fhir/list-order"/>
							<code value="system"/>
							<display value="Sorted by System"/>
						</coding>
					</orderedBy>
			<!--		<entry>
						<reference value="urn:uuid:8197e5be-1483-48e6-bf30-842f5184d4cf"/>
						<display value="Tonic-clonic seizures"/>
					</entry>
					<entry>
						<reference value="urn:uuid:84a8fe59-7b83-4eae-a40b-170ed685524f"/>
						<display value="Gastro-oesophageal reflux"/>
					</entry>
					<entry>
						<reference value="urn:uuid:5d9f0362-986f-4595-b45a-bbbdc3a5dbc2"/>
						<display value="Spastic quadriplegia secondary to birth asphyxia"/>
					</entry>
					<entry>
						<reference value="urn:uuid:86c81e4e-78e4-4969-8dbd-f2085cbeacc0"/>
						<display value="Cortical visual impairment"/>
					</entry>
					<entry>
						<reference value="urn:uuid:c30681f5-7fbe-4fac-9f12-6affe00aa792"/>
						<display value="Bilateral convergent squint"/>
					</entry>
					<entry>
						<reference value="urn:uuid:1825a67b-c64a-42c9-bb05-2c192f3b7c01"/>
						<display value="General learning difficulties"/>
					</entry>
					<entry>
						<reference value="urn:uuid:e633d8e2-947e-45a3-a9bf-ed09561c437f"/>
						<display value="Vertigo"/>
					</entry>-->
				</section>												
				<!--Examination findings-->
				<section>
					<title value="Examination finding"/>
					<code>
						<coding>
							<system value="http://snomed.info/sct"/>
							<code value="715851000000102"/>
							<display value="Examination findings"/>
						</coding>
					</code>
					<text>
						<status value="generated"/>
						<div xmlns="http://www.w3.org/1999/xhtml">
							<table width="100%">
								<tbody>
								<tr>
									<th align="left">Examination findings</th>
								</tr>
									<tr>
										<td align="left">Musculosketal system and nervous system</td>
										<td align="left">Mary's ankles both dorsiflex to 90°.  Her hips are very tight; the right hip only abducts to 30° and the left hip to 45°. The right hip has deteriorated.</td>
									</tr>
									<tr>
										<td align="left">Dental</td>
										<td align="left">No evidence of dental carries.</td>
									</tr>
								</tbody>
							</table>
						</div>
					</text>
				</section>
				<!--Medication and medical devices-->
				<section>
					<title value="Medications and medical devices"/>
					<code>
						<coding>
							<system value="http://snomed.info/sct"/>
							<code value="933361000000108"/>
							<display value="Medications and medical devices"/>
						</coding>
					</code>
					<text>
						<status value="generated"/>
						<div xmlns="http://www.w3.org/1999/xhtml">
							<table width="55%">
								<tbody>
									<tr>
									<th align="left">Changes to medications and medical devices</th>							
									</tr>
									<tr>
										<td>(only changes to medications and medical devices as a result of the outpatient encounter are included)</td>
									</tr>
									<tr>
										<td align="left">Medication name</td>
										<td align="left">Lamotrigine</td>
									</tr>
									<tr>
										<td align="left">Medication form</td>
										<td align="left">dispersible tablets</td>
									</tr>
									<tr>
										<td align="left">Route</td>
										<td align="left">via gastrostomy</td>
									</tr>
									<tr>
										<td align="left">Dose</td>
										<td align="left">10mg</td>
									</tr>
										<tr>
										<td align="left">Medication frequency</td>
										<td align="left">Twice a day</td>
									</tr>
									<tr>
										<td>Status</td>
										<td>Medication amended</td>
									</tr>
									<tr>
										<td align="left">Reason for medication change</td>
										<td align="left">Increasing tonic-clonic convulsions</td>
									</tr>
									<tr>
										<td align="left">Date of latest change</td>
										<td align="left">01/05/17</td>
									</tr>
									<tr>
										<td align="left">Medication change</td>
										<td align="left">increase to 10mg twice daily</td>
									</tr>
										<tr>
										<td align="left">Comment</td>
										<td align="left">14-day prescription provided, please provide a new prescription on parent’s request.</td>
									</tr>
										<tr>
										<td align="left">Total dose daily quantity</td>
										<td align="left">20mg</td>
									</tr>
								</tbody>
							</table>
							<br/>
						</div>
					</text>
					<orderedBy>
						<coding>
							<system value="http://hl7.org/fhir/list-order"/>
							<code value="system"/>
							<display value="Sorted by System"/>
						</coding>
					</orderedBy>
		<!--			<entry>
						<reference value="urn:uuid:9b1cf5d4-2445-4c99-994a-b75b1a13a4f3"/>
						<display value="Medication List"/>
					</entry>-->
				</section>
				<!--Plan and requested actions-->
				<section>
					<title value="Plan and requested actions"/>
					<code>
						<coding>
							<system value="http://snomed.info/sct"/>
							<code value="887201000000105"/>
							<display value="Plan and requested actions"/>
						</coding>
					</code>
					<text>
						<status value="generated"/>
						<div xmlns="http://www.w3.org/1999/xhtml">
							<table width="100%">
								<tbody>
								<tr>
									<th align="left">Plan and requested action for carer</th>
								</tr>
								
									<tr>
										<td>Mrs. Jones to contact epilepsy nurse on 01226 730000 if she has and concerns regarding convulsions and medical change.</td>
									</tr>
									<tr>
									<th align="left">Plan and requested actions for healthcare professionals</th>
								</tr>
									<tr>
										<td>Request to orthopaedics for early appointment for advice on deteriorating right hip</td>
										<td>Dr. Arnold Rimmer, 01/05/17</td>
									</tr>
									<tr>
										<td>Letter of support to education regarding school transport</td>
										<td>Dr. Arnold Rimmer, 01/05/17</td>
									</tr>
									<tr>
										<td>Review medication with Sally’s mother by telephone in two weeks.</td>
										<td>Phil Brown, epilepsy nurse</td>
									</tr>
								</tbody>
							</table>						
						</div>
					</text>
				</section>
				<!--Problems and issues-->
				<section>
					<title value="Problems and issues"/>
					<code>
						<coding>
							<system value="http://snomed.info/sct"/>
							<code value="887151000000100"/>
							<display value="Problems and issues"/>
						</coding>
					</code>
					<text>
						<status value="generated"/>
						<div xmlns="http://www.w3.org/1999/xhtml">
							<table width="100%">
								<tbody>
									<tr>
										<th align="left">Problems and issues</th>	
									</tr>
									<tr>
										<td>1.	Increased tonic-clonic convulsions</td>							
									</tr>				
									<tr>
										<td>2.	Problems with transport to school</td>							
									</tr>				
										<tr>
										<td>3.	Increasingly tight right hip</td>		
										</tr>					
								</tbody>
							</table>						
						</div>
					</text>
				</section>	
				<!--Social context-->
				<section>
					<title value="Social context"/>
					<code>
						<coding>
							<system value="http://snomed.info/sct"/>
							<code value="887051000000101"/>
							<display value="Social context"/>
						</coding>
					</code>
					<text>
						<status value="generated"/>
						<div xmlns="http://www.w3.org/1999/xhtml">
							<table width="100%">
								<tbody>
									<tr>
										<th align="left">Social context</th>
										<th></th>
									</tr>
									<tr>
										<td align="left">Educational history</td>
										<td>Mary started at Greenacre School in September. She enjoys it and the teachers are pleased with her progress.  Her mother has been bringing her to school by car but this is becoming an increasing problem as due to recent changes work she now has to start work at
										 8:30 AM. Unfortunately Mary is not eligible for free school transport until she is five years old. The home-school liaison teacher is trying to come to an agreement with the local authority to enable Mary to use school transport.  
										 The teacher for visual impairment has seen her in school and recommended that she use large print books and a magnifying glass.</td>
										 </tr>
								</tbody>
							</table>
						</div>
					</text>
				</section>
				<!--Review of systems-->
				<section>
					<title value="Review of systems"/>
					<code>
						<coding>
							<system value="http://snomed.info/sct"/>
							<code value="887121000000105"/>
							<display value="Review of systems"/>
						</coding>
					</code>
					<text>
						<status value="generated"/>
						<div xmlns="http://www.w3.org/1999/xhtml">
							<table width="100%">
								<tbody>
								<tr>
									<th align="left">Review of systems</th>
								</tr>
									<tr>
										<th align="left">Neurodevelopmental assessment</th>
									</tr>
									<tr>
										<td>Mary can now sit unsupported for about 30 seconds. When lying prone she can draw her knees up underneath her but does not make any attempts to move. In clinic she was able to complete the circle and square form board but cannot do them reversed. 
										She can say 10 words with meaning and her mother feels she can understand far more. She is able to finger feed and will drink from a cup if it is held for her. She is becoming more sociable and has a lovely smile.needed to go to hospital. 
										She had a PEG inserted in April 2017 and her reflux has reduced considerably since then. She has increasing spasticity of right hip and more frequent tonic-clonic convulsions.</td>
									</tr>
								</tbody>
							</table>
						</div>
					</text>
				</section>
			</Composition>
			
		</resource>
	</entry>
	<!--Encounter Example 1-->
	<entry>
		<fullUrl value="urn:uuid:4f36b35a-ad18-4ea9-a3fb-c893f709e88a"/>
		<resource>
			<Encounter>
				<id value="4f36b35a-ad18-4ea9-a3fb-c893f709e88a"/>
				<meta>
					<profile value="https://fhir.hl7.org.uk/StructureDefinition/CareConnect-Encounter-1"/>
				</meta>
				<identifier>
					<system value="https://tools.ietf.org/html/rfc4122"/>
					<value value="13c73015-d8fa-4844-8d68-4f856883eca8"/>
				</identifier>
				<status value="finished"/>
				<class value="outpatient"/>
				<type>
					<coding>
						<system value="http://snomed.info/sct"/>
						<code value="17436001"/>
						<display value="Medical consultation with outpatient"/>
					</coding>
				</type>
				<patient>
					<reference value="31686b67-9f20-4644-9a54-193d2f91de57"/>
					<display value="JONES, Mary (Miss)"/>
				</patient>
				<period>
					<start value="2017-05-16T09:00:00+00:00"/>
					<end value="2017-05-16T09:00:00+00:00"/>
				</period>
				<hospitalization>
					<admitSource>
						<coding>
							<system value="http://hl7.org/fhir/admit-source"/>
							<code value="gp"/>
							<display value="General Practitioner referral"/>
						</coding>
					</admitSource>
					<dischargeDiagnosis>
						<reference value="urn:uuid:6b639186-a9cd-43b0-9880-9ddb7902b934"/>
						<display value="Tonic-clonic seizures "/>
					</dischargeDiagnosis>
					<dischargeDiagnosis>
						<reference value="urn:uuid:6b639186-a9cd-43b0-9880-9ddb7902b934"/>
						<display value="Gastro-oesophageal reflux "/>
					</dischargeDiagnosis>
					<dischargeDiagnosis>
						<reference value="urn:uuid:6b639186-a9cd-43b0-9880-9ddb7902b934"/>
						<display value="Spastic quadriplegia secondary to birth asphyxia"/>
					</dischargeDiagnosis>
					<dischargeDiagnosis>
						<reference value="urn:uuid:6b639186-a9cd-43b0-9880-9ddb7902b934"/>
						<display value="Cortical visual impairment"/>
					</dischargeDiagnosis>
					<dischargeDiagnosis>
						<reference value="urn:uuid:6b639186-a9cd-43b0-9880-9ddb7902b934"/>
						<display value="Bilateral convergent squint"/>
					</dischargeDiagnosis>
					<dischargeDiagnosis>
						<reference value="urn:uuid:6b639186-a9cd-43b0-9880-9ddb7902b934"/>
						<display value="General learning difficulties"/>
					</dischargeDiagnosis>
		
				</hospitalization>
				<location>
					<location>
						<reference value="urn:uuid:01bb1ccc-577b-4a4a-9fb0-9c8fe9f21fa3"/>
						<display value="Hospital"/>
					</location>
				</location>
			</Encounter>
		</resource>
	</entry>
		
	<!--Diagnoses 1-->
	<entry>
		<fullUrl value="urn:uuid:7400a34c-28d9-4668-8b52-90866efc5356"/>
		<resource>
			<Condition>
				<id value="7400a34c-28d9-4668-8b52-90866efc5356"/>
				<meta>
					<profile value="https://fhir.hl7.org.uk/StructureDefinition/CareConnect-Condition-1"/>
				</meta>
				<identifier>
					<system value="https://tools.ietf.org/html/rfc4122"/>
					<value value="c4b2d64e-23f3-4055-8299-141aacf9c16c"/>
				</identifier>
				<patient>
					<reference value="31686b67-9f20-4644-9a54-193d2f91de57"/>
					<display value="JONES, Mary (Miss)"/>
				</patient>
				<encounter>
					<reference value="urn:uuid:4f36b35a-ad18-4ea9-a3fb-c893f709e88a"/>
				</encounter>
				<asserter>
					<reference value="urn:uuid:d25fd1c6-2658-4db7-9af0-86c5f95e8ec9"/>
					<display value="O`CASEY, Shauna (Dr)"/>
				</asserter>
				<dateRecorded value="2015-03-05"/>
				<code>
					<coding>
						<system value="http://snomed.info/sct"/>
						<code value="54200006"/>
						<display value="Tonic-clonic seizures "/>
					</coding>
				</code>
				<category>
					<coding>
						<system value="https://fhir.hl7.org.uk/CareConnect-ConditionCategory-1"/>
						<code value="diagnosis"/>
						<display value="Diagnosis"/>
					</coding>
				</category>
				<clinicalStatus value="active"/>
				<verificationStatus value="confirmed"/>
				<onsetDateTime value="2017-05-15T12:00:00+00:00"/>
			</Condition>
		</resource>
	</entry>
		<!--Diagnoses 2-->
	<entry>
		<fullUrl value="urn:uuid:11c67bbc-f472-4a1c-bd6a-536fbf2de2ee"/>
		<resource>
			<Condition>
				<id value="11c67bbc-f472-4a1c-bd6a-536fbf2de2ee"/>
				<meta>
					<profile value="https://fhir.hl7.org.uk/StructureDefinition/CareConnect-Condition-1"/>
				</meta>
				<identifier>
					<system value="https://tools.ietf.org/html/rfc4122"/>
					<value value="c4b2d64e-23f3-4055-8299-141aacf9c16c"/>
				</identifier>
				<patient>
					<reference value="31686b67-9f20-4644-9a54-193d2f91de57"/>
					<display value="JONES, Mary (Miss)"/>
				</patient>
				<encounter>
					<reference value="urn:uuid:4f36b35a-ad18-4ea9-a3fb-c893f709e88a"/>
				</encounter>
				<asserter>
					<reference value="urn:uuid:d25fd1c6-2658-4db7-9af0-86c5f95e8ec9"/>
					<display value="O`CASEY, Shauna (Dr)"/>
				</asserter>
				<dateRecorded value="2015-03-05"/>
				<code>
					<coding>
						<system value="http://snomed.info/sct"/>
						<code value="235595009"/>
						<display value="Gastro-oesophageal reflux "/>
					</coding>
				</code>
				<category>
					<coding>
						<system value="https://fhir.hl7.org.uk/CareConnect-ConditionCategory-1"/>
						<code value="diagnosis"/>
						<display value="Diagnosis"/>
					</coding>
				</category>
				<clinicalStatus value="active"/>
				<verificationStatus value="confirmed"/>
				<onsetDateTime value="2017-05-15T12:00:00+00:00"/>
			</Condition>
		</resource>
	</entry>
	<!--Diagnoses 3-->
	<entry>
		<fullUrl value="urn:uuid:e67fbf3f-2c4b-4d9a-a900-856613eda7df"/>
		<resource>
			<Condition>
				<id value="e67fbf3f-2c4b-4d9a-a900-856613eda7df"/>
				<meta>
					<profile value="https://fhir.hl7.org.uk/StructureDefinition/CareConnect-Condition-1"/>
				</meta>
				<identifier>
					<system value="https://tools.ietf.org/html/rfc4122"/>
					<value value="c4b2d64e-23f3-4055-8299-141aacf9c16c"/>
				</identifier>
				<patient>
					<reference value="31686b67-9f20-4644-9a54-193d2f91de57"/>
					<display value="JONES, Mary (Miss)"/>
				</patient>
				<encounter>
					<reference value="urn:uuid:4f36b35a-ad18-4ea9-a3fb-c893f709e88a"/>
				</encounter>
				<asserter>
					<reference value="urn:uuid:d25fd1c6-2658-4db7-9af0-86c5f95e8ec9"/>
					<display value="O`CASEY, Shauna (Dr)"/>
				</asserter>
				<dateRecorded value="2015-03-05"/>
				<code>
					<coding>
						<system value="http://snomed.info/sct"/>
						<code value="192965001"/>
						<display value="Spastic quadriplegia"/>
					</coding>
				</code>
				<category>
					<coding>
						<system value="https://fhir.hl7.org.uk/CareConnect-ConditionCategory-1"/>
						<code value="diagnosis"/>
						<display value="Diagnosis"/>
					</coding>
				</category>
				<clinicalStatus value="active"/>
				<verificationStatus value="confirmed"/>
				<onsetDateTime value="2017-05-15T12:00:00+00:00"/>
			</Condition>
		</resource>
	</entry>
	<!--Diagnoses 4-->
	<entry>
		<fullUrl value="urn:uuid:dee2f3ec-37ea-493e-8529-1764e9b5b059"/>
		<resource>
			<Condition>
				<id value="dee2f3ec-37ea-493e-8529-1764e9b5b059"/>
				<meta>
					<profile value="https://fhir.hl7.org.uk/StructureDefinition/CareConnect-Condition-1"/>
				</meta>
				<identifier>
					<system value="https://tools.ietf.org/html/rfc4122"/>
					<value value="c4b2d64e-23f3-4055-8299-141aacf9c16c"/>
				</identifier>
				<patient>
					<reference value="31686b67-9f20-4644-9a54-193d2f91de57"/>
					<display value="JONES, Mary (Miss)"/>
				</patient>
				<encounter>
					<reference value="urn:uuid:4f36b35a-ad18-4ea9-a3fb-c893f709e88a"/>
				</encounter>
				<asserter>
					<reference value="urn:uuid:d25fd1c6-2658-4db7-9af0-86c5f95e8ec9"/>
					<display value="O`CASEY, Shauna (Dr)"/>
				</asserter>
				<dateRecorded value="2015-03-05"/>
				<code>
					<coding>
						<system value="http://snomed.info/sct"/>
						<code value="413924001"/>
						<display value="Cortical visual impairment "/>
					</coding>
				</code>
				<category>
					<coding>
						<system value="https://fhir.hl7.org.uk/CareConnect-ConditionCategory-1"/>
						<code value="diagnosis"/>
						<display value="Diagnosis"/>
					</coding>
				</category>
				<clinicalStatus value="active"/>
				<verificationStatus value="confirmed"/>
				<onsetDateTime value="2017-05-15T12:00:00+00:00"/>
			</Condition>
		</resource>
	</entry>
	<!--Diagnoses 5-->
	<entry>
		<fullUrl value="urn:uuid:22de9616-7efd-43de-b701-c08fa19eb815"/>
		<resource>
			<Condition>
				<id value="22de9616-7efd-43de-b701-c08fa19eb815"/>
				<meta>
					<profile value="https://fhir.hl7.org.uk/StructureDefinition/CareConnect-Condition-1"/>
				</meta>
				<identifier>
					<system value="https://tools.ietf.org/html/rfc4122"/>
					<value value="c4b2d64e-23f3-4055-8299-141aacf9c16c"/>
				</identifier>
				<patient>
					<reference value="31686b67-9f20-4644-9a54-193d2f91de57"/>
					<display value="JONES, Mary (Miss)"/>
				</patient>
				<encounter>
					<reference value="urn:uuid:4f36b35a-ad18-4ea9-a3fb-c893f709e88a"/>
				</encounter>
				<asserter>
					<reference value="urn:uuid:d25fd1c6-2658-4db7-9af0-86c5f95e8ec9"/>
					<display value="O`CASEY, Shauna (Dr)"/>
				</asserter>
				<dateRecorded value="2015-03-05"/>
				<code>
					<coding>
						<system value="http://snomed.info/sct"/>
						<code value="16596007"/>
						<display value="Convergent squint "/>
					</coding>
				</code>
				<category>
					<coding>
						<system value="https://fhir.hl7.org.uk/CareConnect-ConditionCategory-1"/>
						<code value="diagnosis"/>
						<display value="Diagnosis"/>
					</coding>
				</category>
				<clinicalStatus value="active"/>
				<verificationStatus value="confirmed"/>
				<onsetDateTime value="2017-05-15T12:00:00+00:00"/>
			</Condition>
		</resource>
	</entry>
	<!--Diagnoses 6-->
	<entry>
		<fullUrl value="urn:uuid:d43dfd53-880e-40b1-81ea-a3ae3e612954"/>
		<resource>
			<Condition>
				<id value="d43dfd53-880e-40b1-81ea-a3ae3e612954"/>
				<meta>
					<profile value="https://fhir.hl7.org.uk/StructureDefinition/CareConnect-Condition-1"/>
				</meta>
				<identifier>
					<system value="https://tools.ietf.org/html/rfc4122"/>
					<value value="c4b2d64e-23f3-4055-8299-141aacf9c16c"/>
				</identifier>
				<patient>
					<reference value="31686b67-9f20-4644-9a54-193d2f91de57"/>
					<display value="JONES, Mary (Miss)"/>
				</patient>
				<encounter>
					<reference value="urn:uuid:4f36b35a-ad18-4ea9-a3fb-c893f709e88a"/>
				</encounter>
				<asserter>
					<reference value="urn:uuid:d25fd1c6-2658-4db7-9af0-86c5f95e8ec9"/>
					<display value="O`CASEY, Shauna (Dr)"/>
				</asserter>
				<dateRecorded value="2015-03-05"/>
				<code>
					<coding>
						<system value="http://snomed.info/sct"/>
						<code value="161129001"/>
						<display value="Learning difficulties"/>
					</coding>
				</code>
				<category>
					<coding>
						<system value="https://fhir.hl7.org.uk/CareConnect-ConditionCategory-1"/>
						<code value="diagnosis"/>
						<display value="Diagnosis"/>
					</coding>
				</category>
				<clinicalStatus value="active"/>
				<verificationStatus value="confirmed"/>
				<onsetDateTime value="2017-05-15T12:00:00+00:00"/>
			</Condition>
		</resource>
	</entry>
	<!--Medication List Example 1-->
	<entry>
		<fullUrl value="urn:uuid:d0710501-2e32-4cbd-bd63-a14354bbcd0f"/>
		<resource>
			<List>
				<id value="d0710501-2e32-4cbd-bd63-a14354bbcd0f"/>
				<meta>
					<profile value="https://fhir.nhs.uk/StructureDefinition/COFE-Medication-List-1"/>
				</meta>
				<identifier>
					<system value="https://tools.ietf.org/html/rfc4122"/>
					<value value="cb8e31b2-15d4-4fe6-a690-13934348fbf1"/>
				</identifier>
				<code>
					<coding>
						<system value="http://hl7.org/fhir/list-example-use-codes"/>
						<code value="medications"/>
						<display value="Medication List"/>
					</coding>
				</code>
				<subject>
					<reference value="urn:uuid:31686b67-9f20-4644-9a54-193d2f91de57"/>
					<display value="JONES, Mary (Miss)"/>
				</subject>
				<status value="current"/>
				<mode value="snapshot"/>
				<entry>
					<flag>
						<coding>
							<system value="https://fhir.nhs.uk/medication-list-flag-code-1"/>
							<code value="08"/>
							<display value="Active"/>
						</coding>
					</flag>
					<item>
						<reference value="urn:uuid:a94d6293-cfc0-45a3-b7a8-ae7040f990f1"/>
					</item>
				</entry>
				<entry>
					<flag>
						<coding>
							<system value="https://fhir.nhs.uk/medication-list-flag-code-1"/>
							<code value="08"/>
							<display value="Active"/>
						</coding>
					</flag>
					<item>
						<reference value="urn:uuid:8cb5665c-6d66-4ed2-8cea-97cb8f559252"/>
					</item>
				</entry>
				<entry>
					<flag>
						<coding>
							<system value="https://fhir.nhs.uk/medication-list-flag-code-1"/>
							<code value="08"/>
							<display value="Active"/>
						</coding>
					</flag>
					<item>
						<reference value="urn:uuid:934ac400-f197-4bbc-a307-5ce8d271d4dd"/>
					</item>
				</entry>
				<entry>
					<flag>
						<coding>
							<system value="https://fhir.nhs.uk/medication-list-flag-code-1"/>
							<code value="08"/>
							<display value="Active"/>
						</coding>
					</flag>
					<item>
						<reference value="urn:uuid:1092404d-00c9-4f9e-b7df-9abbc8762c91"/>
					</item>
				</entry>
				<entry>
					<flag>
						<coding>
							<system value="https://fhir.nhs.uk/medication-list-flag-code-1"/>
							<code value="08"/>
							<display value="Active"/>
						</coding>
					</flag>
					<item>
						<reference value="urn:uuid:539258fb-08de-44a4-8683-f72b235c43af"/>
					</item>
				</entry>
				<entry>
					<flag>
						<coding>
							<system value="https://fhir.nhs.uk/medication-list-flag-code-1"/>
							<code value="08"/>
							<display value="Active"/>
						</coding>
					</flag>
					<item>
						<reference value="urn:uuid:11baa8fd-b670-47d1-ab3a-183488af5c6e"/>
					</item>
				</entry>
			</List>
		</resource>
	</entry>	
	<!--Medication Statement Example 1-->
	<entry>
		<fullUrl value="urn:uuid:a94d6293-cfc0-45a3-b7a8-ae7040f990f1"/>
		<resource>
			<MedicationStatement>
				<id value="a94d6293-cfc0-45a3-b7a8-ae7040f990f1"/>
				<meta>
					<profile value="https://fhir.hl7.org.uk/StructureDefinition/CareConnect-MedicationStatement-1"/>
				</meta>
				<extension url="https://fhir.hl7.org.uk/StructureDefinition/Extension-CareConnect-MedicationFlag-1">
					<valueReference>
						<reference value="urn:uuid:4adc7662-25d3-4e29-ba7c-2787482e300b"/>
					</valueReference>
				</extension>
				<patient>
					<reference value="urn:uuid:31686b67-9f20-4644-9a54-193d2f91de57"/>
					<display value="JONES, Mary (Miss)"/>
				</patient>
				<status value="active"/>
				<medicationReference>
					<reference value="urn:uuid:ebc37408-dc6c-437a-a09f-f7ee88927e3f"/>
					<display value="Lamotrigine 5mg tablet"/>
				</medicationReference>
				<dosage>
					<text value="Take two twice daily"/>
					<timing>
						<repeat>
							<frequency value="2"/>
							<period value="1"/>
							<periodUnits value="d"/>
						</repeat>
					</timing>
					<asNeededBoolean value="false"/>
					<route>
						<coding>
							<system value="http://snomed.info/sct"/>
							<code value="260548002"/>
							<display value="Oral"/>
						</coding>
					</route>
					<quantityQuantity>
						<value value="2"/>
					</quantityQuantity>
					<maxDosePerPeriod>
						<numerator>
							<value value="4"/>
							<unit value="Tablet"/>
							<system value="http://snomed.info/sct"/>
							<code value="385055001"/>
						</numerator>
						<denominator>
							<value value="1"/>
							<system value="http://unitsofmeasure.org"/>
							<code value="d"/>
						</denominator>
					</maxDosePerPeriod>
				</dosage>
			</MedicationStatement>
		</resource>
	</entry>	
	<!--Medication Example 1-->
	<entry>
		<fullUrl value="urn:uuid:ebc37408-dc6c-437a-a09f-f7ee88927e3f"/>
		<resource>
			<Medication>
				<id value="ebc37408-dc6c-437a-a09f-f7ee88927e3f"/>
				<meta>
					<profile value="https://fhir.hl7.org.uk/StructureDefinition/CareConnect-Medication-1"/>
				</meta>
				<code>
					<coding>
						<system value="http://snomed.info/sct"/>
						<code value="376961004"/>
						<display value="Lamotrigine 5mg tablet"/>
					</coding>
				</code>
			</Medication>
		</resource>
	</entry>	
		<!--Review of systems-->
<entry>
	<fullUrl value="urn:uuid:b2fe7f0a-06cc-429c-9b43-7b0f612f7690"/>
	<resource>	
		<Observation>
		<id value="b2fe7f0a-06cc-429c-9b43-7b0f612f7690"/>
		<meta>
		<profile value="https://fhir.hl7.org.uk/StructureDefinition/CareConnect-Observation-1"/>
		</meta>
		<identifier>
		<system value="https://tools.ietf.org/html/rfc4122"/>
			<value value="2683c8b1-9ed5-4de4-b00d-f69fbb34cbdb"/>
		</identifier>
		<status value="final"/>
		<code>
			<coding>
				<system value="http://snomed.info/sct"/>
				<code value="887121000000105"/>
				<display value="Review of systems"/>
			</coding>
		</code>
		<subject>
			<reference value="urn:uuid:31686b67-9f20-4644-9a54-193d2f91de57"/>
			<display value="JONES, Mary (Miss)"/>
		</subject>
		<effectiveDateTime value="2016-01-02T08:39:16+00:00"/>
		<performer>
			<reference value="urn:uuid:d25fd1c6-2658-4db7-9af0-86c5f95e8ec9"/>
			<display value="O`CASEY, Shauna (Dr)"/>
		</performer>
		<comments value="Neurodevelopmental assessment. Mary can now sit unsupported for about 30 seconds. When lying prone she can draw her knees up underneath her but does not make any attempts to move. In clinic she was able to complete the circle and square form board but cannot do them reversed. 
		She can say 10 words with meaning and her mother feels she can understand far more. She is able to finger feed and will drink from a cup if it is held for her. She is becoming more sociable and has a lovely smile."/>
		</Observation>	
	</resource>
	</entry>
		<!--Medication Flag Example 1-->
	<entry>
		<fullUrl value="urn:uuid:4adc7662-25d3-4e29-ba7c-2787482e300b"/>
		<resource>
			<Flag>
				<id value="4adc7662-25d3-4e29-ba7c-2787482e300b"/>
				<meta>
					<profile value="https://fhir.hl7.org.uk/StructureDefinition/CareConnect-Medication-Flag-1"/>
				</meta>
				<extension url="https://fhir.hl7.org.uk/StructureDefinition/Extension-CareConnect-MedicationFlagAssociation-1">
					<valueReference>
						<reference value="a94d6293-cfc0-45a3-b7a8-ae7040f990f1"/>
					</valueReference>
				</extension>
				<identifier>
					<system value="https://tools.ietf.org/html/rfc4122"/>
					<value value="76ef531e-d072-4f62-8c78-e16b35c188c8"/>
				</identifier>
				<category>
					<coding>
						<system value="http://hl7.org/fhir/flag-category"/>
						<code value="drug"/>
						<display value="Drug"/>
					</coding>
				</category>
				<status value="active"/>
				<subject>
					<reference value="urn:uuid:31686b67-9f20-4644-9a54-193d2f91de57"/>
					<display value="JONES, Mary (Miss)"/>
				</subject>
				<code>
					<coding>
						<system value="https://fhir.hl7.org.uk/CareConnect-MedicationFlag-1"/>
						<code value="continue-indefinitely"/>
						<display value="Continue Indefinitely"/>
					</coding>
				</code>
			</Flag>
		</resource>
	</entry>
	<!--Social context-->
<entry>
	<fullUrl value="urn:uuid:8213efcf-cb60-4aae-ac54-4efa09e2d3f6"/>
	<resource>	
		<Observation>
		<id value="8213efcf-cb60-4aae-ac54-4efa09e2d3f6"/>
		<meta>
		<profile value="https://fhir.hl7.org.uk/StructureDefinition/CareConnect-Observation-1"/>
		</meta>
		<identifier>
		<system value="https://tools.ietf.org/html/rfc4122"/>
			<value value="4493a574-d16f-4b97-a38c-56ad39e9748f"/>
		</identifier>
		<status value="final"/>
		<code>
			<coding>
				<system value="http://snomed.info/sct"/>
				<code value="887051000000101"/>
				<display value=" Social context"/>
			</coding>
		</code>
		<subject>
			<reference value="urn:uuid:31686b67-9f20-4644-9a54-193d2f91de57"/>
			<display value="JONES, Mary (Miss)"/>
		</subject>
		<effectiveDateTime value="2016-01-02T08:39:16+00:00"/>
		<performer>
			<reference value="urn:uuid:5e414a77-d394-4248-a631-00e45ddb64a0"/>
			<display value="O`REILLY, C (Dr)"/>
		</performer>
		<comments value="Educational history. 
		Mary started at Greenacre School in September. She enjoys it and the teachers are pleased with her progress.  
		Her mother has been bringing her to school by car but this is becoming an increasing problem as due to recent changes work she now has to start work at 8:30 AM. 
		Unfortunately Mary is not eligible for free school transport until she is five years old. The home-school liaison teacher is trying to come to an agreement with the local authority to enable Mary to use school transport.  
		The teacher for visual impairment has seen her in school and recommended that she use large print books and a magnifying glass."/>
		</Observation>	
	</resource>
	</entry>
	
		<!--Patient-Example-1-->
	<entry>
		<fullUrl value="31686b67-9f20-4644-9a54-193d2f91de57"/>
		<resource>
			<Patient>
				<id value="31686b67-9f20-4644-9a54-193d2f91de57"/>
				<meta>
					<profile value="https://fhir.hl7.org.uk/StructureDefinition/CareConnect-Patient-1"/>
				</meta>
				<extension url="https://fhir.hl7.org.uk/StructureDefinition/Extension-CareConnect-EthnicCategory-1">
					<valueCodeableConcept>
						<coding>
							<system value="https://fhir.hl7.org.uk/CareConnect-EthnicCategory-1"/>
							<code value="A"/>
							<display value="British, Mixed British"/>
						</coding>
					</valueCodeableConcept>
				</extension>
				<extension url="https://fhir.hl7.org.uk/StructureDefinition/Extension-CareConnect-ReligiousAffiliation-1">
					<valueCodeableConcept>
						<coding>
							<system value="http://snomed.info/sct"/>
							<code value="80587008"/>
							<display value="Jehovah's Witness"/>
						</coding>
					</valueCodeableConcept>
				</extension>
				<extension url="http://hl7.org/fhir/StructureDefinition/patient-cadavericDonor">
					<valueBoolean value="false"/>
				</extension>
				<extension url="https://fhir.hl7.org.uk/StructureDefinition/Extension-CareConnect-ResidentialStatus-1">
					<valueCodeableConcept>
						<coding>
							<system value="https://fhir.hl7.org.uk/CareConnect-ResidentialStatus-1"/>
							<code value="H"/>
							<display value="UK Resident"/>
						</coding>
					</valueCodeableConcept>
				</extension>
				<extension url="https://fhir.hl7.org.uk/StructureDefinition/Extension-CareConnect-TreatmentCategory-1">
					<valueCodeableConcept>
						<coding>
							<system value="https://fhir.hl7.org.uk/CareConnect-TreatmentCategory-1"/>
							<code value="8"/>
							<display value="Not applicable"/>
						</coding>
					</valueCodeableConcept>
				</extension>
				<extension url="https://fhir.hl7.org.uk/StructureDefinition/Extension-CareConnect-NHSCommunication-1">
					<extension url="language">
						<valueCodeableConcept>
							<coding>
								<system value="https://fhir.hl7.org.uk/CareConnect-HumanLanguage-1"/>
								<code value="en"/>
								<display value="English"/>
							</coding>
						</valueCodeableConcept>
					</extension>
					<extension url="preferred">
						<valueBoolean value="true"/>
					</extension>
					<extension url="modeOfCommunication">
						<valueCodeableConcept>
							<coding>
								<system value="https://fhir.hl7.org.uk/CareConnect-LanguageAbilityMode-1"/>
								<code value="ESP"/>
								<display value="Expressed spoken"/>
							</coding>
						</valueCodeableConcept>
					</extension>
					<extension url="modeOfCommunication">
						<valueCodeableConcept>
							<coding>
								<system value="https://fhir.hl7.org.uk/CareConnect-LanguageAbilityMode-1"/>
								<code value="RWR"/>
								<display value="Received written"/>
							</coding>
						</valueCodeableConcept>
					</extension>
					<extension url="communicationProficiency">
						<valueCodeableConcept>
							<coding>
								<system value="https://fhir.hl7.org.uk/CareConnect-LanguageAbilityProficiency-1"/>
								<code value="E"/>
								<display value="Excellent"/>
							</coding>
						</valueCodeableConcept>
					</extension>
					<extension url="interpreterRequired">
						<valueBoolean value="false"/>
					</extension>
				</extension>
				<identifier>
					<extension url="https://fhir.hl7.org.uk/StructureDefinition/Extension-CareConnect-NHSNumberVerificationStatus-1">
						<valueCodeableConcept>
							<coding>
								<system value="https://fhir.hl7.org.uk/CareConnect-NHSNumberVerificationStatus-1"/>
								<code value="01"/>
								<display value="Number present and verified"/>
							</coding>
						</valueCodeableConcept>
					</extension>
					<system value="https://fhir.nhs.uk/Id/nhs-number"/>
					<value value="1352465790"/>
				</identifier>
				<active value="true"/>
				<name>
					<use value="usual"/>
					<family value="Beckett"/>
					<given value="Sam"/>
					<prefix value="Mrs"/>
				</name>
					<telecom>
					<system value="phone"/>
					<value value="077 1234 7982"/>
					<use value="mobile"/>
				</telecom>
				<telecom>
					<system value="email"/>
					<value value="sam@beckett.net"/>
					<use value="home"/>
				</telecom>
				<gender value="female"/>
				<birthDate value="1973-03-02"/>
				<address>
					<use value="home"/>
					<line value="34 Acacia Road"/>
					<postalCode value="BM9 6PL"/>
				</address>
				<careProvider>
					<reference value="urn:uuid:f9f24f89-646b-4a19-a6b1-cabfa3b612e1"/>
					<display value="Canvas Health Centre"/>
				</careProvider>
			</Patient>
		</resource>
	</entry>
	
		<!--Practitioner-Example-1-->
	<entry>
		<fullUrl value="urn:uuid:8ece9986-9af0-4882-b0cf-23a96ea7b509"/>
		<resource>
			<Practitioner>
				<id value="8ece9986-9af0-4882-b0cf-23a96ea7b509"/>
				<meta>
					<profile value="https://fhir.hl7.org.uk/StructureDefinition/CareConnect-Practitioner-1"/>
				</meta>
				<name>
					<family value="Hall"/>
					<given value="Sarah"/>
				</name>
				<practitionerRole>
					<managingOrganization>
						<reference value="urn:uuid:12bba528-a08a-448b-946b-7e8008044025"/>
						<display value="Adobe Health Centre"/>
					</managingOrganization>
					<role>
						<coding>
							<system value="https://fhir.hl7.org.uk/CareConnect-SDSJobRoleName-1"/>
							<code value="R1480"/>
							<display value="Healthcare Assistant"/>
						</coding>
					</role>
				</practitionerRole>
			</Practitioner>
		</resource>
	</entry>
		<!--Practitioner-Example-2-->
	<entry>
		<fullUrl value="urn:uuid:d25fd1c6-2658-4db7-9af0-86c5f95e8ec9"/>
		<resource>
			<Practitioner>
				<id value="d25fd1c6-2658-4db7-9af0-86c5f95e8ec9"/>
				<meta>
					<profile value="https://fhir.hl7.org.uk/StructureDefinition/CareConnect-Practitioner-1"/>
				</meta>
				<identifier>
					<system value="https://fhir.nhs.uk/Id/sds-user-id"/>
					<value value="GP12345600"/>
				</identifier>
				<name>
					<family value="O`Reilly"/>
					<given value="C"/>
					<prefix value="Dr"/>
				</name>
				<telecom>
						<system value="phone"/>
						<value value="01234 562987"/>
						<use value="work"/>
				</telecom>
				<practitionerRole>
					<managingOrganization>
						<reference value="urn:uuid:f9f24f89-646b-4a19-a6b1-cabfa3b612e1"/>
						<display value="Canvas Health Centre"/>
					</managingOrganization>
					<role>
						<coding>
							<system value="https://fhir.hl7.org.uk/CareConnect-SDSJobRoleName-1"/>
							<code value="R0260"/>
							<display value="General Medical Practitioner"/>
						</coding>
					</role>
				</practitionerRole>
			</Practitioner>
		</resource>
	</entry>
		<!--Organization-Example-1-->
	<entry>
		<fullUrl value="urn:uuid:f9f24f89-646b-4a19-a6b1-cabfa3b612e1"/>
		<resource>
			<Organization>
				<id value="f9f24f89-646b-4a19-a6b1-cabfa3b612e1"/>
				<meta>
					<profile value="https://fhir.hl7.org.uk/StructureDefinition/CareConnect-Organization-1"/>
				</meta>
				<identifier>
					<system value="https://fhir.nhs.uk/Id/ods-organization-code"/>
					<value value="A111111"/>
				</identifier>
				<type>
					<coding>
						<system value="http://hl7.org/fhir/organization-type"/>
						<code value="prov"/>
						<display value="Healthcare Provider"/>
					</coding>
				</type>
				<name value="Canvas Health Centre"/>
				<telecom>
					<system value="phone"/>
					<value value="01234 956412"/>
					<use value="work"/>
				</telecom>
				<telecom>
					<system value="email"/>
					<value value="Admin@MMC.co.uk"/>
				</telecom>
				<address>
					<use value="work"/>
					<line value="27 Acacia Road"/>
					<line value="BM9 6PM "/>
				</address>
			</Organization>
		</resource>
	</entry>
		<!--Organization-Example-2-->
	<entry>
		<fullUrl value="urn:uuid:12bba528-a08a-448b-946b-7e8008044025"/>
		<resource>
			<Organization>
				<id value="12bba528-a08a-448b-946b-7e8008044025"/>
				<meta>
					<profile value="https://fhir.hl7.org.uk/StructureDefinition/CareConnect-Organization-1"/>
				</meta>
				<identifier>
					<system value="https://fhir.nhs.uk/Id/ods-organization-code"/>
					<value value="RR8"/>
				</identifier>
				<type>
					<coding>
						<system value="http://hl7.org/fhir/organization-type"/>
						<code value="prov"/>
						<display value="Healthcare Provider"/>
					</coding>
				</type>
				<name value="Adobe Health Centre"/>
				<telecom>
					<system value="phone"/>
					<value value="01234 567890"/>
					<use value="work"/>
				</telecom>
				<address>
					<line value="Adobe Health Centre"/>
					<line value="Department of Palliative Medicine"/>
					<line value="Donaldstown"/>
					<postalCode value="DO5 7TP"/>
				</address>
			</Organization>
		</resource>
	</entry>

		<!--Location-Example-1-->
	<entry>
		<fullUrl value="urn:uuid:01bb1ccc-577b-4a4a-9fb0-9c8fe9f21fa3"/>
		<resource>
			<Location>
				<id value="01bb1ccc-577b-4a4a-9fb0-9c8fe9f21fa3"/>
				<meta>
					<profile value="https://fhir.hl7.org.uk/StructureDefinition/CareConnect-Location-1"/>
				</meta>
				<name value="Adobe Health Centre"/>
				<type>
					<coding>
						<system value="http://hl7.org/fhir/v3/RoleCode"/>
						<code value="HOSP"/>
						<display value="Hospital"/>
					</coding>
				</type>
			</Location>
		</resource>
	</entry>

</Bundle>
