<?xml version="1.0" encoding="UTF-8"?>
<!--Sample XML file generated by XMLSpy v2017 sp2 (http://www.altova.com)-->
<Bundle xmlns="http://hl7.org/fhir" xmlns:xsi="http://www.w3.org/2001/XMLSchema-instance" xsi:schemaLocation="http://hl7.org/fhir ../../Schemas/bundle.xsd">
	<id value="6191cc21-cb11-4d99-8cb2-2afe1c7e9d2f"/>
	<meta>
		<profile value="https://fhir.nhs.uk/StructureDefinition/cofe-document-bundle-1"/>
	</meta>
	<type value="document"/>
	<!--Outpatient Letter Composition-->
	<entry>
		<fullUrl value="urn:uuid:95ab3b52-b229-43db-a919-fa09db5e08d3"/>
		<resource>
			<Composition>
				<id value="95ab3b52-b229-43db-a919-fa09db5e08d3"/>
				<meta>
					<profile value="https://fhir.nhs.uk/StructureDefinition/cofe-opl-composition-1"/>
				</meta>
				
				<!-- Information Recipient 1 -->
				<extension url="https://fhir.nhs.uk/StructureDefinition/extension-cofe-information-recipient-1">
					<valueReference>
						<reference value="8ece9986-9af0-4882-b0cf-23a96ea7b509"/>
						<display value="BRYANT, N (Mrs)"/>
					</valueReference>
				</extension>
				<!-- Information Recipient 2 -->
				<extension url="https://fhir.nhs.uk/StructureDefinition/extension-cofe-information-recipient-1">
					<valueReference>
						<reference value="5e414a77-d394-4248-a631-00e45ddb64a0"/>
						<display value="O`REILLY, C (Dr)"/>
					</valueReference>
				</extension>				
				<!-- Care Setting Type -->
				<extension url="https://fhir.nhs.uk/StructureDefinition/extension-cofe-care-setting-type-1">
					<valueCodeableConcept>
						<coding>
							<system value="http://snomed.info/sct"/>
							<code value="893641000000102"/>
							<display value="Palliative medicine service"/>
						</coding>
					</valueCodeableConcept>
				</extension>
				
				<identifier>
					<value id="2b5d459b-df79-4a2b-9b0c-95b2a7ee2ca4"/>
				</identifier>
				<date value="2015-02-17T10:00:00+00:00"/>
				<type>
					<!--Discharge Summary-->
					<coding>
						<system value="http://snomed.info/sct"/>
						<code value="373942005"/>
						<display value="Discharge summary"/>
					</coding>
				</type>
				<title value="Discharge summary"/>
				<status value="final"/>
				<confidentiality value="V"/>
				<subject>
					<reference value="urn:uuid:31686b67-9f20-4644-9a54-193d2f91de57"/>
					<display value="WALKER, Margaret (Mrs)"/>
				</subject>
				<author>
					<reference value="urn:uuid:d25fd1c6-2658-4db7-9af0-86c5f95e8ec9"/>
					<display value="MACKAY, Doris (Dr)"/>
				</author>
				<custodian>
					<reference value="urn:uuid:12bba528-a08a-448b-946b-7e8008044025"/>
					<display value="St Crispin’s Hospital"/>
				</custodian>
				<encounter>
					<reference value="4f36b35a-ad18-4ea9-a3fb-c893f709e88a"/>
					<display value="Medical consultation on hospital inpatient"/>
				</encounter>			
				<section>
					<title value="Attendance details section"/>
					<code>
						<coding>
							<system value="http://snomed.info/sct"/>
							<code value="886811000000106"/>
							<display value="Attendance details section"/>
						</coding>
					</code>
					<text>
						<status value="generated"/>
						<div xmlns="http://www.w3.org/1999/xhtml">
							<table width="100%">
								<tbody>
									<tr>
										<th>Date of encounter</th>
										<td>01/05/2017</td>
									</tr>
									<tr>
										<th>Contact type</th>
										<td>First  appointment</td>
									</tr>
									<tr>
										<th>Consultation method</th>
										<td>Face-to-face</td>
									</tr>
									<tr>
										<th>Seen by</th>
										<td>Dr. Doris Mackay, Consultant in Palliative Medicine (01234) 562987<br/></td>
									</tr>
									<tr>
										<th>Patient accompanied by</th>
										<td>Ms. Karen Walker (daughter)</td>
									</tr>
										<tr>
											<th></th>
										<td>Mrs. N Bryant, IBD specialist nurse</td>
									</tr>
									<tr>
											<th>Outcome</th>
											<td>Appointment made for 01/06/2017</td>
									</tr>
								</tbody>
							</table>
						</div>
					</text>
					<orderedBy>
						<coding>
							<system value="http://hl7.org/fhir/list-order"/>
							<code value="system"/>
							<display value="Sorted by System"/>
						</coding>
					</orderedBy>
			<!--		<entry>
						<reference value="c37a3a1a-0895-44c4-a79a-f7b7bb425e47"/>
					</entry>-->
				</section>					
				<section>
					<title value="Allergies and adverse reactions"/>
					<code>
						<coding>
							<system value="http://snomed.info/sct"/>
							<code value="886921000000105"/>
							<display value="Allergies and adverse reactions"/>
						</coding>
					</code>
					<text>
						<status value="generated"/>
						<div xmlns="http://www.w3.org/1999/xhtml">
							<table width="100%">
								<tbody>
									<tr>
										<th align="left">Allergies and adverse reactions</th>
									</tr>
									<tr>
										<td>Ms. Walker has no known allergies or adverse reactions.</td>
									</tr>
								</tbody>
							</table>
						</div>
					</text>
					<orderedBy>
						<coding>
							<system value="http://hl7.org/fhir/list-order"/>
							<code value="system"/>
							<display value="Sorted by System"/>
						</coding>
					</orderedBy>
			<!--		<entry>
						<reference value="627bd799-7a86-40bd-a931-d8526b412fa5"/>
						<display value="Allergies"/>
					</entry>-->
				</section>
				<section>
					<title value="Diagnoses"/>
					<code>
						<coding>
							<system value="http://snomed.info/sct"/>
							<code value="887161000000102"/>
							<display value="Diagnoses"/>
						</coding>
					</code>
					<text>
						<status value="generated"/>
						<div xmlns="http://www.w3.org/1999/xhtml">
					
							<br/>
						<table style="color:#000000;" width="55%" border="0">
								<tbody>
									<tr>
										<th align="left">Diagnosis</th>
									</tr>
									<tr>
										<td>1.	Metastatic renal cell carcinoma</td>			
									</tr>				
									<tr>
										<td>2.	Secondary liver cell carcinoma</td>				
									</tr>				
										<tr>
										<td>3.	Necrotic subcutaneous soft tissue nodule (anterior to liver)</td>			
									</tr>			
										<tr>
										<td>4.	Type II diabetes</td>					
									</tr>		
											<tr>
										<td>5.	Osteoporosis</td>				
									</tr>	
											<tr>
										<td>6.	Hiatus hernia</td>				
									</tr>
											<tr>
										<td>7.	Vertigo</td>				
									</tr>
								</tbody>
							</table>
							<br/>
							<p>I had the pleasure of meeting Ms. Walker at the palliative care outpatient clinic today, referred by Susan Snodgrass from the community Macmillan team, Endowdown Centre, BM5 0TP on the 23 April 2017.</p>
							<br/>
						</div>
					</text>
					<orderedBy>
						<coding>
							<system value="http://hl7.org/fhir/list-order"/>
							<code value="system"/>
							<display value="Sorted by System"/>
						</coding>
					</orderedBy>
<!--					<entry>
						<reference value="8197e5be-1483-48e6-bf30-842f5184d4cf"/>
						<display value="Metastatic renal cell carcinoma"/>
					</entry>
					<entry>
						<reference value="84a8fe59-7b83-4eae-a40b-170ed685524f"/>
						<display value="Secondary liver cell carcinoma"/>
					</entry>
					<entry>
						<reference value="5d9f0362-986f-4595-b45a-bbbdc3a5dbc2"/>
						<display value="Necrotic subcutaneous soft tissue nodule (anterior to liver)"/>
					</entry>
					<entry>
						<reference value="86c81e4e-78e4-4969-8dbd-f2085cbeacc0"/>
						<display value="Type II diabetes"/>
					</entry>
					<entry>
						<reference value="c30681f5-7fbe-4fac-9f12-6affe00aa792"/>
						<display value="Osteoporosis"/>
					</entry>
					<entry>
						<reference value="1825a67b-c64a-42c9-bb05-2c192f3b7c01"/>
						<display value="Hiatus hernia"/>
					</entry>
					<entry>
						<reference value="e633d8e2-947e-45a3-a9bf-ed09561c437f"/>
						<display value="Vertigo"/>
					</entry>-->
				</section>												
				<section>
					<title value="Problems and issues"/>
					<code>
						<coding>
							<system value="http://snomed.info/sct"/>
							<code value="887151000000100"/>
							<display value="Problems and issues"/>
						</coding>
					</code>
					<text>
						<status value="generated"/>
						<div xmlns="http://www.w3.org/1999/xhtml">
							<table width="100%">
								<tbody>
									<tr>
										<th align="left">Problems and issues</th>	
									</tr>
									<tr>
										<td>1.	Pain</td>							
									</tr>				
									<tr>
										<td>2.	Nausea</td>							
									</tr>				
										<tr>
										<td>3.	Fatigue</td>							
									</tr>			
										<tr>
										<td>4.	Psychologically: tearful and upset</td>											
									</tr>
								</tbody>
							</table>						
						</div>
					</text>
				</section>	
				<section>
					<title value="Information and advice given"/>
					<code>
						<coding>
							<system value="http://snomed.info/sct"/>
							<code value="1052951000000105"/>
							<display value="Information and advice given"/>
						</coding>
					</code>
					<text>
						<status value="generated"/>
						<div xmlns="http://www.w3.org/1999/xhtml">
							<table width="100%">
								<tbody>
									<tr>
										<th align="left">Information and advice given</th>
									</tr>
									<tr>
										<td>We discussed the benefit of being able to do more through the day and having better psychological well-being when pain is better controlled. I have explained how we would use long acting Morphine preparation along with Oramorph to get control of background as well as breakthrough cancer pain. Given the degree of tenderness around the subcutaneous nodule on the right upper quadrant, we have discussed that radiotherapy may be helpful with the pain.<br/><br/>

We discussed that Ms. Walker’s fatigue is part of the cancer presentation, and we discussed being pragmatic - doing activities with gaps in between to allow herself to conserve energy whilst pacing herself through the day.  I have encouraged her to cut back on tasks that are not as important as others such as her household chores and to delegate them to others, such as family where possible.  We acknowledged that this is a significant change in her lifestyle given that she was independently managing everything for a long time.<br/><br/>

I explained that while the speed at which disease recurrence has happened doesn’t bode well, we will need to see how Ms. Walker is likely to respond to potential treatment options.  We are likely to know more about prognosis following her appointment with the Oncologist in the next couple of weeks - we don’t know how she will respond to treatment in itself. It may be that the treatment might be effective but that she might not be strong enough to cope with it on a long term basis; however we are hopeful that there will be some positive outcome with the treatment.  I have encouraged her to proceed with planning ahead and deciding about what she would prefer to happen irrespective of her prognosis.<br/><br/>

I have agreed that Ms. Walker’s wish not to be resuscitated in the event of a cardio respiratory arrest was sensible and advised her either yourself or I could complete a community DNACPR form in the near future. Her son and daughter are aware that she could have an appointed LPA on matters of her health and well-being. She is considering funeral arrangement plans.<br/><br/>

I have advised that Ms. Walker can get in touch with me if there are any concerns.<br/><br/>
</td>									</tr>
								</tbody>
							</table>
						</div>
					</text>
				</section>				
				<section>
					<title value="Legal information"/>
					<code>
						<coding>
							<system value="http://snomed.info/sct"/>
							<code value="886961000000102"/>
							<display value="Legal information"/>
						</coding>
					</code>
					<text>
						<status value="generated"/>
						<div xmlns="http://www.w3.org/1999/xhtml">
							<table width="100%">
								<tbody>
									<tr>
										<th align="left">Legal information</th>
										
									</tr>
									<tr>
										<td>LPA: Ms. Walker’s son, Timothy and daughter, Karen have an LPA for handling her financial matters.</td>
									</tr>
								</tbody>
							</table>
							<br/>
						</div>
					</text>
				</section>
				<section>
					<title value="Medications and medical devices"/>
					<code>
						<coding>
							<system value="http://snomed.info/sct"/>
							<code value="933361000000108"/>
							<display value="Medications and medical devices"/>
						</coding>
					</code>
					<text>
						<status value="generated"/>
						<div xmlns="http://www.w3.org/1999/xhtml">
							<table width="100%">
								<tbody>
									<tr>
									<th align="left">Changes to medications and medical devices</th>							
									</tr>
									<tr>
										<td>(only changes to medications and medical devices as a result of the outpatient encounter are included)</td>
									</tr>
									<tr>
										<td>New medication</td>
									</tr>
									<tr>
										<td>I have given Ms. Walker the following prescriptions for new medications:</td>
									</tr>
									<tr>
										<td>1.	A 14-day prescription for MST in tablet form at a dose of 15mg to be taken orally twice a day for pain relief. Please renew the prescription in two weeks’ time.</td>
									</tr>
									<tr>
										<td>2.	A prescription for Oramorph in tablet form at a dose of 2.5-5mg to be taken orally as necessary for pain relief, but not more frequently than once every two hours. Please renew the prescription if necessary.</td>
									</tr>
									<tr>
										<td>3.	A 14-day prescription for Metoclopramide in tablet form at a dose of 10mg to be taken orally as necessary, but not more frequently than three times a day for nausea. Please renew prescription if necessary.</td>
									</tr>
									<tr>
										<td>4.	A 5-day prescription for Dexamethasone in tablet form at a dose of 4mg to be taken once in the morning for 5 days. The hope is that Dexamethasone will increase her energy levels and appetite.</td>
									</tr>
							
								</tbody>
							</table>
							<br/>
						</div>
					</text>
					<orderedBy>
						<coding>
							<system value="http://hl7.org/fhir/list-order"/>
							<code value="system"/>
							<display value="Sorted by System"/>
						</coding>
					</orderedBy>
		<!--			<entry>
						<reference value="9b1cf5d4-2445-4c99-994a-b75b1a13a4f3"/>
						<display value="Medication List"/>
					</entry>-->
				</section>
				<section>
					<title value="Patient and carer concerns, expectations and wishes"/>
					<code>
						<coding>
							<system value="http://snomed.info/sct"/>
							<code value="1052941000000107"/>
							<display value="Patient and carer concerns, expectations and wishes"/>
						</coding>
					</code>
					<text>
						<status value="generated"/>
						<div xmlns="http://www.w3.org/1999/xhtml">
							<table width="100%">
								<tbody>
									<tr>
										<th align="left">Patient and carer concerns, expectations and wishes</th>								
									</tr>
									<tr>
										<td>Ms. Walker is very clear that she wishes to have more as much detail as possible and asked about her prognosis. She does not wish to be resuscitated in the event of a cardio respiratory arrest.</td>
									</tr>
								</tbody>
							</table>
							<br/>
						</div>
					</text>
				</section>			
				<section>
					<title value="Plan and requested actions"/>
					<code>
						<coding>
							<system value="http://snomed.info/sct"/>
							<code value="887201000000105"/>
							<display value="Plan and requested actions"/>
						</coding>
					</code>
					<text>
						<status value="generated"/>
						<div xmlns="http://www.w3.org/1999/xhtml">
							<table width="100%">
								<tbody>
								<tr>
									<th align="left">Plan and requested actions for healthcare professionals</th>
								</tr>
								
									<tr>
										<td>Ms. Walker is to be supported to complete a community DNACPR form when she is ready (Doris MacKay or Dr. C. O’Reilly depending on timing).</td>
									</tr>
										<tr>
										<td>Ms. Walker is to see Professor Hawkins for consideration of immunotherapy as it is hopeful that she will have some benefit from this treatment. Currently her performance status is around 1-2.</td>
									</tr>
										<tr>
										<td>Professor Hawkins is requested to consider radiotherapy to help with pain as a result of degree of tenderness around the subcutaneous nodule on the right upper quadrant.</td>
									</tr>
										<tr>
										<td>Kindly arrange for a blood glucose check next week as Dexamethasone might increase her BM levels. (She is aware that this is likely to be temporary and will get better with stopping Dexamethasone).</td>
									</tr>
								</tbody>
							</table>						
						</div>
					</text>
				</section>

				
			</Composition>
		</resource>
	</entry>
<!--Encounter Example 1-->
	<entry>
		<fullUrl value="urn:uuid:4f36b35a-ad18-4ea9-a3fb-c893f709e88a"/>
		<resource>
			<Encounter>
				<id value="4f36b35a-ad18-4ea9-a3fb-c893f709e88a"/>
				<meta>
					<profile value="https://fhir.hl7.org.uk/StructureDefinition/CareConnect-Encounter-1"/>
				</meta>
				<identifier>
					<system value="https://tools.ietf.org/html/rfc4122"/>
					<value value="13c73015-d8fa-4844-8d68-4f856883eca8"/>
				</identifier>
				<status value="finished"/>
				<class value="inpatient"/>
				<type>
					<coding>
						<system value="http://snomed.info/sct"/>
						<code value="24882007"/>
						<display value="Medical consultation on hospital inpatient"/>
					</coding>
				</type>
				<patient>
					<reference value="urn:uuid:31686b67-9f20-4644-9a54-193d2f91de57"/>
					<display value="WALKER, Margaret (Mrs)"/>
				</patient>
				<period>
					<start value="2015-02-12T09:00:00+00:00"/>
					<end value="2016-02-16T09:00:00+00:00"/>
				</period>
				<hospitalization>
					<admitSource>
						<coding>
							<system value="http://hl7.org/fhir/admit-source"/>
							<code value="emd"/>
							<display value="From accident/emergency department"/>
						</coding>
					</admitSource>
					<dischargeDisposition>
						<coding>
							<system value="http://hl7.org/fhir/discharge-disposition"/>
							<code value="home"/>
							<display value="Home"/>
						</coding>
					</dischargeDisposition>
					<dischargeDiagnosis>
						<reference value="urn:uuid:8197e5be-1483-48e6-bf30-842f5184d4cf"/>
						<display value="Metastatic renal cell carcinoma"/>
					</dischargeDiagnosis>
					<dischargeDiagnosis>
						<reference value="urn:uuid:84a8fe59-7b83-4eae-a40b-170ed685524f"/>
						<display value="Secondary liver cell carcinoma"/>
					</dischargeDiagnosis>
					<dischargeDiagnosis>
						<reference value="urn:uuid:5d9f0362-986f-4595-b45a-bbbdc3a5dbc2"/>
						<display value="Necrotic subcutaneous soft tissue nodule (anterior to liver)"/>
					</dischargeDiagnosis>
					<dischargeDiagnosis>
						<reference value="urn:uuid:86c81e4e-78e4-4969-8dbd-f2085cbeacc0"/>
						<display value="Type II diabetes"/>
					</dischargeDiagnosis>
					<dischargeDiagnosis>
						<reference value="urn:uuid:c30681f5-7fbe-4fac-9f12-6affe00aa792"/>
						<display value="Osteoporosis"/>
					</dischargeDiagnosis>
					<dischargeDiagnosis>
						<reference value="urn:uuid:1825a67b-c64a-42c9-bb05-2c192f3b7c01"/>
						<display value="Hiatus hernia"/>
					</dischargeDiagnosis>
					<dischargeDiagnosis>
						<reference value="urn:uuid:e633d8e2-947e-45a3-a9bf-ed09561c437f"/>
						<display value="Vertigo"/>
					</dischargeDiagnosis>
				</hospitalization>
				<location>
					<location>
						<reference value="urn:uuid:01bb1ccc-577b-4a4a-9fb0-9c8fe9f21fa3"/>
						<display value="Hospital"/>
					</location>
				</location>
			</Encounter>
		</resource>
	</entry>
	<!--Allergies List-->
	<entry>
		<fullUrl value="urn:uuid:627bd799-7a86-40bd-a931-d8526b412fa5"/>
		<resource>
			<List>
				<id value="627bd799-7a86-40bd-a931-d8526b412fa5"/>
				<meta>
					<profile value="https://fhir.nhs.uk/StructureDefinition/COFE-Allergies-List-1"/>
				</meta>
				<identifier>
					<system value="https://tools.ietf.org/html/rfc4122"/>
					<value value="9ca85d9b-c54c-4134-8fcc-3552796c7340"/>
				</identifier>
				<code>
					<coding>
						<system value="http://hl7.org/fhir/list-example-use-codes"/>
						<code value="allergies"/>
						<display value="Allergies"/>
					</coding>
				</code>
				<subject>
					<reference value="urn:uuid:31686b67-9f20-4644-9a54-193d2f91de57"/>
					<display value="WALKER, Margaret (Mrs)"/>
				</subject>
				<encounter>
					<reference value="urn:uuid:4f36b35a-ad18-4ea9-a3fb-c893f709e88a"/>
				</encounter>
				<status value="current"/>
				<mode value="snapshot"/>
			</List>
		</resource>
	</entry>
	<!--Diagnoses 1-->
	<entry>
		<fullUrl value="urn:uuid:11ae3617-f898-4503-a895-54eed614a574"/>
		<resource>
			<Condition>
				<id value="11ae3617-f898-4503-a895-54eed614a574"/>
				<meta>
					<profile value="https://fhir.hl7.org.uk/StructureDefinition/CareConnect-Condition-1"/>
				</meta>
				<identifier>
					<system value="https://tools.ietf.org/html/rfc4122"/>
					<value value="c4b2d64e-23f3-4055-8299-141aacf9c16c"/>
				</identifier>
				<patient>
					<reference value="urn:uuid:31686b67-9f20-4644-9a54-193d2f91de57"/>
					<display value="WALKER, Margaret (Mrs)"/>
				</patient>
				<encounter>
					<reference value="urn:uuid:4f36b35a-ad18-4ea9-a3fb-c893f709e88a"/>
				</encounter>
				<asserter>
					<reference value="urn:uuid:d25fd1c6-2658-4db7-9af0-86c5f95e8ec9"/>
					<display value="MACKAY, Doris (Dr)"/>
				</asserter>
				<dateRecorded value="2015-03-05"/>
				<code>
					<coding>
						<system value="http://snomed.info/sct"/>
						<code value="702392008"/>
						<display value="Metastatic renal cell carcinoma"/>
					</coding>
				</code>
				<category>
					<coding>
						<system value="https://fhir.hl7.org.uk/CareConnect-ConditionCategory-1"/>
						<code value="diagnosis"/>
						<display value="Diagnosis"/>
					</coding>
				</category>
				<clinicalStatus value="active"/>
				<verificationStatus value="confirmed"/>
				<onsetDateTime value="2015-03-15T12:00:00+00:00"/>
			</Condition>
		</resource>
	</entry>
	<!--Diagnoses 2-->
	<entry>
		<fullUrl value="urn:uuid:9bb6e9bc-f173-48df-9fe5-fb78025c24fb"/>
		<resource>
			<Condition>
				<id value="11ae3617-f898-4503-a895-54eed614a574"/>
				<meta>
					<profile value="https://fhir.hl7.org.uk/StructureDefinition/CareConnect-Condition-1"/>
				</meta>
				<identifier>
					<system value="https://tools.ietf.org/html/rfc4122"/>
					<value value="c4b2d64e-23f3-4055-8299-141aacf9c16c"/>
				</identifier>
				<patient>
					<reference value="urn:uuid:31686b67-9f20-4644-9a54-193d2f91de57"/>
					<display value="WALKER, Margaret (Mrs)"/>
				</patient>
				<encounter>
					<reference value="urn:uuid:4f36b35a-ad18-4ea9-a3fb-c893f709e88a"/>
				</encounter>
				<asserter>
					<reference value="urn:uuid:d25fd1c6-2658-4db7-9af0-86c5f95e8ec9"/>
					<display value="MACKAY, Doris (Dr)"/>
				</asserter>
				<dateRecorded value="2015-03-05"/>
				<code>
					<coding>
						<system value="http://snomed.info/sct"/>
						<code value="109841003"/>
						<display value="Liver cell carcinoma"/>
					</coding>
				</code>
				<category>
					<coding>
						<system value="https://fhir.hl7.org.uk/CareConnect-ConditionCategory-1"/>
						<code value="diagnosis"/>
						<display value="Diagnosis"/>
					</coding>
				</category>
				<clinicalStatus value="active"/>
				<verificationStatus value="confirmed"/>
				<onsetDateTime value="2015-03-15T12:00:00+00:00"/>
			</Condition>
		</resource>
	</entry>
	<!--Diagnoses 3-->
	<entry>
		<fullUrl value="urn:uuid:ef679849-88ab-4161-a9e8-05113bcbf791"/>
		<resource>
			<Condition>
				<id value="11ae3617-f898-4503-a895-54eed614a574"/>
				<meta>
					<profile value="https://fhir.hl7.org.uk/StructureDefinition/CareConnect-Condition-1"/>
				</meta>
				<identifier>
					<system value="https://tools.ietf.org/html/rfc4122"/>
					<value value="c4b2d64e-23f3-4055-8299-141aacf9c16c"/>
				</identifier>
				<patient>
					<reference value="urn:uuid:31686b67-9f20-4644-9a54-193d2f91de57"/>
					<display value="WALKER, Margaret (Mrs)"/>
				</patient>
				<encounter>
					<reference value="urn:uuid:4f36b35a-ad18-4ea9-a3fb-c893f709e88a"/>
				</encounter>
				<asserter>
					<reference value="urn:uuid:d25fd1c6-2658-4db7-9af0-86c5f95e8ec9"/>
					<display value="MACKAY, Doris (Dr)"/>
				</asserter>
				<dateRecorded value="2015-03-05"/>
				<code>
					<coding>
						<system value="http://snomed.info/sct"/>
						<code value="83982007"/>
						<display value="Necrotic subcutaneous soft tissue nodule "/>
					</coding>
				</code>
				<category>
					<coding>
						<system value="https://fhir.hl7.org.uk/CareConnect-ConditionCategory-1"/>
						<code value="diagnosis"/>
						<display value="Diagnosis"/>
					</coding>
				</category>
				<clinicalStatus value="active"/>
				<verificationStatus value="confirmed"/>
				<onsetDateTime value="2015-03-15T12:00:00+00:00"/>
			</Condition>
		</resource>
	</entry>
	<!--Diagnoses 4-->
	<entry>
		<fullUrl value="urn:uuid:4a99a6e2-070c-4996-b0b5-9fc568db2aa7"/>
		<resource>
			<Condition>
				<id value="4a99a6e2-070c-4996-b0b5-9fc568db2aa7"/>
				<meta>
					<profile value="https://fhir.hl7.org.uk/StructureDefinition/CareConnect-Condition-1"/>
				</meta>
				<identifier>
					<system value="https://tools.ietf.org/html/rfc4122"/>
					<value value="c4b2d64e-23f3-4055-8299-141aacf9c16c"/>
				</identifier>
				<patient>
					<reference value="urn:uuid:31686b67-9f20-4644-9a54-193d2f91de57"/>
					<display value="WALKER, Margaret (Mrs)"/>
				</patient>
				<encounter>
					<reference value="urn:uuid:4f36b35a-ad18-4ea9-a3fb-c893f709e88a"/>
				</encounter>
				<asserter>
					<reference value="urn:uuid:d25fd1c6-2658-4db7-9af0-86c5f95e8ec9"/>
					<display value="MACKAY, Doris (Dr)"/>
				</asserter>
				<dateRecorded value="2015-03-05"/>
				<code>
					<coding>
						<system value="http://snomed.info/sct"/>
						<code value="44054006"/>
						<display value="Diabetes mellitus type 2"/>
					</coding>
				</code>
				<category>
					<coding>
						<system value="https://fhir.hl7.org.uk/CareConnect-ConditionCategory-1"/>
						<code value="diagnosis"/>
						<display value="Diagnosis"/>
					</coding>
				</category>
				<clinicalStatus value="active"/>
				<verificationStatus value="confirmed"/>
				<onsetDateTime value="2015-03-15T12:00:00+00:00"/>
			</Condition>
		</resource>
	</entry>
	<!--Diagnoses 5-->
	<entry>
		<fullUrl value="urn:uuid:4d743018-298a-45cb-a337-3fdaa8635a21"/>
		<resource>
			<Condition>
				<id value="11ae3617-f898-4503-a895-54eed614a574"/>
				<meta>
					<profile value="https://fhir.hl7.org.uk/StructureDefinition/CareConnect-Condition-1"/>
				</meta>
				<identifier>
					<system value="https://tools.ietf.org/html/rfc4122"/>
					<value value="c4b2d64e-23f3-4055-8299-141aacf9c16c"/>
				</identifier>
				<patient>
					<reference value="urn:uuid:31686b67-9f20-4644-9a54-193d2f91de57"/>
					<display value="WALKER, Margaret (Mrs)"/>
				</patient>
				<encounter>
					<reference value="urn:uuid:4f36b35a-ad18-4ea9-a3fb-c893f709e88a"/>
				</encounter>
				<asserter>
					<reference value="urn:uuid:d25fd1c6-2658-4db7-9af0-86c5f95e8ec9"/>
					<display value="MACKAY, Doris (Dr)"/>
				</asserter>
				<dateRecorded value="2015-03-05"/>
				<code>
					<coding>
						<system value="http://snomed.info/sct"/>
						<code value="64859006"/>
						<display value="Osteoporosis"/>
					</coding>
				</code>
				<category>
					<coding>
						<system value="https://fhir.hl7.org.uk/CareConnect-ConditionCategory-1"/>
						<code value="diagnosis"/>
						<display value="Diagnosis"/>
					</coding>
				</category>
				<clinicalStatus value="active"/>
				<verificationStatus value="confirmed"/>
				<onsetDateTime value="2015-03-15T12:00:00+00:00"/>
			</Condition>
		</resource>
	</entry>
	<!--Diagnoses 6-->
	<entry>
		<fullUrl value="urn:uuid:bd1a71f8-85c6-4605-8a44-3de4b6b8e44f"/>
		<resource>
			<Condition>
				<id value="11ae3617-f898-4503-a895-54eed614a574"/>
				<meta>
					<profile value="https://fhir.hl7.org.uk/StructureDefinition/CareConnect-Condition-1"/>
				</meta>
				<identifier>
					<system value="https://tools.ietf.org/html/rfc4122"/>
					<value value="c4b2d64e-23f3-4055-8299-141aacf9c16c"/>
				</identifier>
				<patient>
					<reference value="urn:uuid:31686b67-9f20-4644-9a54-193d2f91de57"/>
					<display value="WALKER, Margaret (Mrs)"/>
				</patient>
				<encounter>
					<reference value="urn:uuid:4f36b35a-ad18-4ea9-a3fb-c893f709e88a"/>
				</encounter>
				<asserter>
					<reference value="urn:uuid:d25fd1c6-2658-4db7-9af0-86c5f95e8ec9"/>
					<display value="MACKAY, Doris (Dr)"/>
				</asserter>
				<dateRecorded value="2015-03-05"/>
				<code>
					<coding>
						<system value="http://snomed.info/sct"/>
						<code value="84089009"/>
						<display value="Hiatus hernia"/>
					</coding>
				</code>
				<category>
					<coding>
						<system value="https://fhir.hl7.org.uk/CareConnect-ConditionCategory-1"/>
						<code value="diagnosis"/>
						<display value="Diagnosis"/>
					</coding>
				</category>
				<clinicalStatus value="active"/>
				<verificationStatus value="confirmed"/>
				<onsetDateTime value="2015-03-15T12:00:00+00:00"/>
			</Condition>
		</resource>
	</entry>
	<!--Diagnoses 7-->
	<entry>
		<fullUrl value="urn:uuid:9c80f38e-9c42-4096-b233-ddcac4abf2e5"/>
		<resource>
			<Condition>
				<id value="11ae3617-f898-4503-a895-54eed614a574"/>
				<meta>
					<profile value="https://fhir.hl7.org.uk/StructureDefinition/CareConnect-Condition-1"/>
				</meta>
				<identifier>
					<system value="https://tools.ietf.org/html/rfc4122"/>
					<value value="a249b08d-5553-4ee7-ba38-bd64002d8bb4"/>
				</identifier>
				<patient>
					<reference value="urn:uuid:31686b67-9f20-4644-9a54-193d2f91de57"/>
					<display value="WALKER, Margaret (Mrs)"/>
				</patient>
				<encounter>
					<reference value="urn:uuid:d25fd1c6-2658-4db7-9af0-86c5f95e8ec9"/>
				</encounter>
				<asserter>
					<reference value="urn:uuid:44c853c7-a22f-49ce-8eb5-27a05c83e6ec"/>
					<display value="MACKAY, Doris (Dr)"/>
				</asserter>
				<dateRecorded value="2015-03-05"/>
				<code>
					<coding>
						<system value="http://snomed.info/sct"/>
						<code value="399153001"/>
						<display value="Vertigo"/>
					</coding>
				</code>
				<category>
					<coding>
						<system value="https://fhir.hl7.org.uk/CareConnect-ConditionCategory-1"/>
						<code value="diagnosis"/>
						<display value="Diagnosis"/>
					</coding>
				</category>
				<clinicalStatus value="active"/>
				<verificationStatus value="confirmed"/>
				<onsetDateTime value="2015-03-15T12:00:00+00:00"/>
			</Condition>
		</resource>
	</entry>
	<!--history observation 1-->
<entry>
<fullUrl value="urn:uuid:53e14d2b-70a5-408f-8225-c45f1b38a799"/>
		<resource>	
<Observation>
	<id value="53e14d2b-70a5-408f-8225-c45f1b38a799"/>
	<meta>
		<!--Identifies the profile being used-->
		<profile value="https://fhir.hl7.org.uk/StructureDefinition/CareConnect-Observation-1"/>
	</meta>
	<identifier>
	<system value="https://tools.ietf.org/html/rfc4122"/>
		<value value="b2acf55d-cf63-43c8-922a-8ff8170309b7"/>
	</identifier>
	<status value="final"/>
	<code>
		<coding>
			<system value="http://snomed.info/sct"/>
			<code value="37894004"/>
			<display value="Evaluation and management of new outpatient in office or other outpatient facility"/>
		</coding>
	</code>
	<subject>
		<reference value="urn:uuid:31686b67-9f20-4644-9a54-193d2f91de57"/>
		<display value="WALKER, Margaret (Mrs)"/>
	</subject>
	<effectiveDateTime value="2016-01-02T08:39:16+00:00"/>
	<performer>
		<reference value="urn:uuid:d25fd1c6-2658-4db7-9af0-86c5f95e8ec9"/>
		<display value="Dr. Doris MacKay"/>
	</performer>
	<comments value="Ms. Walker was referred for review of symptom control. She has been on pazopanib since May 2017.
She had a right nephrectomy for clear cell renal carcinoma in Sept 2016, and now has metastatic disease.

Pain: Ms. Walker struggles with pain predominantly around the right upper quadrant of her abdomen and this goes all the way round to the back, at worst described as 10/10.  She has been reluctant to take full dose of Co codamol - she intermittently takes one tablet at a time (30/500mg). According to Karen, Ms. Walker clearly has a high pain tolerance level and tends to underplay her symptoms.  

Fatigue: Ms. Walker finds herself tiring out by the second half of the day, particularly if she has done a bit more than usual earlier on.  

Psychologically: According to Karen, she and Ms. Walker have been intermittently tearful and upset given news of disease recurrence and are doing their best to deal with it. Ms. Walker wasn’t expecting to hear about cancer recurrence in such a short period after her surgery."/>
</Observation>	
	</resource>
	</entry>
		<!--Medication List Example 1-->
	<entry>
		<fullUrl value="urn:uuid:d0710501-2e32-4cbd-bd63-a14354bbcd0f"/>
		<resource>
			<List>
				<id value="d0710501-2e32-4cbd-bd63-a14354bbcd0f"/>
				<meta>
					<profile value="https://fhir.nhs.uk/StructureDefinition/COFE-Medication-List-1"/>
				</meta>
				<identifier>
					<system value="https://tools.ietf.org/html/rfc4122"/>
					<value value="cb8e31b2-15d4-4fe6-a690-13934348fbf1"/>
				</identifier>
				<code>
					<coding>
						<system value="http://hl7.org/fhir/list-example-use-codes"/>
						<code value="medications"/>
						<display value="Medication List"/>
					</coding>
				</code>
				<subject>
					<reference value="urn:uuid:31686b67-9f20-4644-9a54-193d2f91de57"/>
					<display value="SMITH, Richard (Mr)"/>
				</subject>
				<status value="current"/>
				<mode value="snapshot"/>
				<entry>
					<flag>
						<coding>
							<system value="https://fhir.nhs.uk/medication-list-flag-code-1"/>
							<code value="08"/>
							<display value="Active"/>
						</coding>
					</flag>
					<item>
						<reference value="urn:uuid:a94d6293-cfc0-45a3-b7a8-ae7040f990f1"/>
					</item>
				</entry>
				<entry>
					<flag>
						<coding>
							<system value="https://fhir.nhs.uk/medication-list-flag-code-1"/>
							<code value="08"/>
							<display value="Active"/>
						</coding>
					</flag>
					<item>
						<reference value="urn:uuid:8cb5665c-6d66-4ed2-8cea-97cb8f559252"/>
					</item>
				</entry>
				<entry>
					<flag>
						<coding>
							<system value="https://fhir.nhs.uk/medication-list-flag-code-1"/>
							<code value="08"/>
							<display value="Active."/>
						</coding>
					</flag>
					<item>
						<reference value="urn:uuid:934ac400-f197-4bbc-a307-5ce8d271d4dd"/>
					</item>
				</entry>
				<entry>
					<flag>
						<coding>
							<system value="https://fhir.nhs.uk/medication-list-flag-code-1"/>
							<code value="08"/>
							<display value="Active"/>
						</coding>
					</flag>
					<item>
						<reference value="urn:uuid:1092404d-00c9-4f9e-b7df-9abbc8762c91"/>
					</item>
				</entry>
				<entry>
					<flag>
						<coding>
							<system value="https://fhir.nhs.uk/medication-list-flag-code-1"/>
							<code value="08"/>
							<display value="Active"/>
						</coding>
					</flag>
					<item>
						<reference value="urn:uuid:539258fb-08de-44a4-8683-f72b235c43af"/>
					</item>
				</entry>
				<entry>
					<flag>
						<coding>
							<system value="https://fhir.nhs.uk/medication-list-flag-code-1"/>
							<code value="08"/>
							<display value="Active"/>
						</coding>
					</flag>
					<item>
						<reference value="urn:uuid:11baa8fd-b670-47d1-ab3a-183488af5c6e"/>
					</item>
				</entry>
			</List>
		</resource>
	</entry>
		<!--Medication Statement Example 1-->
	<entry>
		<fullUrl value="urn:uuid:a94d6293-cfc0-45a3-b7a8-ae7040f990f1"/>
		<resource>
			<MedicationStatement>
				<id value="a94d6293-cfc0-45a3-b7a8-ae7040f990f1"/>
				<meta>
					<profile value="https://fhir.hl7.org.uk/StructureDefinition/CareConnect-MedicationStatement-1"/>
				</meta>
				<extension url="https://fhir.hl7.org.uk/StructureDefinition/Extension-CareConnect-MedicationFlag-1">
					<valueReference>
						<reference value="urn:uuid:4adc7662-25d3-4e29-ba7c-2787482e300b"/>
					</valueReference>
				</extension>
				<patient>
					<reference value="urn:uuid:31686b67-9f20-4644-9a54-193d2f91de57"/>
					<display value="SMITH, Richard (Mr)"/>
				</patient>
				<status value="active"/>
				<medicationReference>
					<reference value="urn:uuid:ebc37408-dc6c-437a-a09f-f7ee88927e3f"/>
					<display value="Morphine sulfate 15mg capsule"/>
				</medicationReference>
				<dosage>
					<text value="Take one twice daily"/>
					<timing>
<!--						<repeat>
							<frequency value="2"/>
							<period value="1"/>
							<periodUnits value="d"/>
						</repeat>-->
					</timing>
					<asNeededBoolean value="false"/>
					<route>
						<coding>
							<system value="http://snomed.info/sct"/>
							<code value="260548002"/>
							<display value="Oral"/>
						</coding>
					</route>
					<quantityQuantity>
						<value value="1"/>
					</quantityQuantity>
					<maxDosePerPeriod>
						<numerator>
							<value value="2"/>
							<unit value="Tablet"/>
							<system value="http://snomed.info/sct"/>
							<code value="385055001"/>
						</numerator>
						<denominator>
							<value value="1"/>
							<system value="http://unitsofmeasure.org"/>
							<code value="d"/>
						</denominator>
					</maxDosePerPeriod>
				</dosage>
			</MedicationStatement>
		</resource>
	</entry>
	<!--Medication Statement Example 2-->
	<entry>
		<fullUrl value="urn:uuid:8cb5665c-6d66-4ed2-8cea-97cb8f559252"/>
		<resource>
			<MedicationStatement>
				<id value="8cb5665c-6d66-4ed2-8cea-97cb8f559252"/>
				<meta>
					<profile value="https://fhir.hl7.org.uk/StructureDefinition/CareConnect-MedicationStatement-1"/>
				</meta>
				<extension url="https://fhir.hl7.org.uk/StructureDefinition/Extension-CareConnect-MedicationFlag-1">
					<valueReference>
						<reference value="urn:uuid:ce650eb7-432c-4d3c-b75b-7c480c1f8fae"/>
					</valueReference>
				</extension>
				<patient>
					<reference value="urn:uuid:31686b67-9f20-4644-9a54-193d2f91de57"/>
					<display value="SMITH, Richard (Mr)"/>
				</patient>
				<status value="active"/>
				<medicationCodeableConcept>
					<coding>
						<system value="http://snomed.info/sct"/>
						<code value="407847009"/>
						<display value="Oramorph 2.5mg-5mg as necessary"/>
					</coding>
				</medicationCodeableConcept>
				<dosage>
					<text value="Take one tablet daily as needed"/>
					<timing>
						<repeat>
							<frequency value="1"/>
							<period value="1"/>
							<periodUnits value="d"/>
						</repeat>
					</timing>
					<asNeededBoolean value="true"/>
					<route>
						<coding>
							<system value="http://snomed.info/sct"/>
							<code value="260548002"/>
							<display value="Oral"/>
						</coding>
					</route>
					<quantityQuantity>
						<value value="1"/>
					</quantityQuantity>
					<maxDosePerPeriod>
						<numerator>
							<value value="12"/>
							<unit value="Tablet"/>
							<system value="http://snomed.info/sct"/>
							<code value="385055001"/>
						</numerator>
						<denominator>
							<value value="1"/>
							<system value="http://unitsofmeasure.org"/>
							<code value="d"/>
						</denominator>
					</maxDosePerPeriod>
				</dosage>
			</MedicationStatement>
		</resource>
	</entry>
	<!--Medication Statement Example 3-->
	<entry>
		<fullUrl value="urn:uuid:934ac400-f197-4bbc-a307-5ce8d271d4dd"/>
		<resource>
			<MedicationStatement>
				<id value="934ac400-f197-4bbc-a307-5ce8d271d4dd"/>
				<meta>
					<profile value="https://fhir.hl7.org.uk/StructureDefinition/CareConnect-MedicationStatement-1"/>
				</meta>
				<extension url="https://fhir.hl7.org.uk/StructureDefinition/Extension-CareConnect-MedicationFlag-1">
					<valueReference>
						<reference value="urn:uuid:23a80c56-2b99-414e-9d3f-c885d29cea18"/>
					</valueReference>
				</extension>
				<patient>
					<reference value="urn:uuid:31686b67-9f20-4644-9a54-193d2f91de57"/>
					<display value="SMITH, Richard (Mr)"/>
				</patient>
				<status value="active"/>
				<medicationCodeableConcept>
					<coding>
						<system value="http://snomed.info/sct"/>
						<code value="372776000"/>
						<display value="Metoclopramide 10mg tablet as necessary"/>
					</coding>
				</medicationCodeableConcept>
				<dosage>
					<text value="Take one tablet as necessary"/>
					<timing>
						<repeat>
							<frequency value="1"/>
							<period value="1"/>
							<periodUnits value="d"/>
						</repeat>
					</timing>
					<asNeededBoolean value="true"/>
					<route>
						<coding>
							<system value="http://snomed.info/sct"/>
							<code value="260548002"/>
							<display value="Oral"/>
						</coding>
					</route>
					<quantityQuantity>
						<value value="1"/>
					</quantityQuantity>
					<maxDosePerPeriod>
						<numerator>
							<value value="3"/>
							<unit value="Tablet"/>
							<system value="http://snomed.info/sct"/>
							<code value="385055001"/>
						</numerator>
						<denominator>
							<value value="1"/>
							<system value="http://unitsofmeasure.org"/>
							<code value="d"/>
						</denominator>
					</maxDosePerPeriod>
				</dosage>
			</MedicationStatement>
		</resource>
	</entry>
	<!--Medication Statement Example 4-->
	<entry>
		<fullUrl value="urn:uuid:1092404d-00c9-4f9e-b7df-9abbc8762c91"/>
		<resource>
			<MedicationStatement>
				<id value="1092404d-00c9-4f9e-b7df-9abbc8762c91"/>
				<meta>
					<profile value="https://fhir.hl7.org.uk/StructureDefinition/CareConnect-MedicationStatement-1"/>
				</meta>
				<extension url="https://fhir.hl7.org.uk/StructureDefinition/Extension-CareConnect-MedicationFlag-1">
					<valueReference>
						<reference value="urn:uuid:0919ca00-56c4-46f3-b435-8202b00563f0"/>
					</valueReference>
				</extension>
				<patient>
					<reference value="urn:uuid:31686b67-9f20-4644-9a54-193d2f91de57"/>
					<display value="SMITH, Richard (Mr)"/>
				</patient>
				<status value="active"/>
				<medicationCodeableConcept>
					<coding>
						<system value="http://snomed.info/sct"/>
						<code value="7561000"/>
						<display value="Dexamethasone 4mg tablet"/>
					</coding>
				</medicationCodeableConcept>
				<dosage>
					<text value="Take one tablet daily"/>
					<timing>
						<repeat>
							<frequency value="1"/>
							<period value="5"/>
							<periodUnits value="d"/>
						</repeat>
					</timing>
					<asNeededBoolean value="true"/>
					<route>
						<coding>
							<system value="http://snomed.info/sct"/>
							<code value="260548002"/>
							<display value="Oral"/>
						</coding>
					</route>
					<quantityQuantity>
						<value value="1"/>
					</quantityQuantity>
					<maxDosePerPeriod>
						<numerator>
							<value value="1"/>
							<unit value="Tablet"/>
							<system value="http://snomed.info/sct"/>
							<code value="385055001"/>
						</numerator>
						<denominator>
							<value value="1"/>
							<system value="http://unitsofmeasure.org"/>
							<code value="d"/>
						</denominator>
					</maxDosePerPeriod>
				</dosage>
			</MedicationStatement>
		</resource>
	</entry>
		<!--Medication Example 1-->
	<entry>
		<fullUrl value="urn:uuid:ebc37408-dc6c-437a-a09f-f7ee88927e3f"/>
		<resource>
			<Medication>
				<id value="ebc37408-dc6c-437a-a09f-f7ee88927e3f"/>
				<meta>
					<profile value="https://fhir.hl7.org.uk/StructureDefinition/CareConnect-Medication-1"/>
				</meta>
				<code>
					<coding>
						<system value="http://snomed.info/sct"/>
						<code value="374685006"/>
						<display value="Morphine sulfate 15mg capsule"/>
					</coding>
				</code>
			</Medication>
		</resource>
	</entry>
	<!--Medication Flag Example 1-->
	<entry>
		<fullUrl value="urn:uuid:4adc7662-25d3-4e29-ba7c-2787482e300b"/>
		<resource>
			<Flag>
				<id value="4adc7662-25d3-4e29-ba7c-2787482e300b"/>
				<meta>
					<profile value="https://fhir.hl7.org.uk/StructureDefinition/CareConnect-Medication-Flag-1"/>
				</meta>
				<extension url="https://fhir.hl7.org.uk/StructureDefinition/Extension-CareConnect-MedicationFlagAssociation-1">
					<valueReference>
						<reference value="a94d6293-cfc0-45a3-b7a8-ae7040f990f1"/>
					</valueReference>
				</extension>
				<identifier>
					<system value="https://tools.ietf.org/html/rfc4122"/>
					<value value="76ef531e-d072-4f62-8c78-e16b35c188c8"/>
				</identifier>
				<category>
					<coding>
						<system value="http://hl7.org/fhir/flag-category"/>
						<code value="drug"/>
						<display value="Drug"/>
					</coding>
				</category>
				<status value="active"/>
				<subject>
					<reference value="urn:uuid:31686b67-9f20-4644-9a54-193d2f91de57"/>
					<display value="SMITH, Richard (Mr)"/>
				</subject>
				<code>
					<coding>
						<system value="https://fhir.hl7.org.uk/CareConnect-MedicationFlag-1"/>
						<code value="continue-indefinitely"/>
						<display value="Continue Indefinitely"/>
					</coding>
				</code>
			</Flag>
		</resource>
	</entry>
	<!--Medication Flag Example 2-->
	<entry>
		<fullUrl value="urn:uuid:ce650eb7-432c-4d3c-b75b-7c480c1f8fae"/>
		<resource>
			<Flag>
				<id value="ce650eb7-432c-4d3c-b75b-7c480c1f8fae"/>
				<meta>
					<profile value="https://fhir.hl7.org.uk/StructureDefinition/CareConnect-Medication-Flag-1"/>
				</meta>
				<extension url="https://fhir.hl7.org.uk/StructureDefinition/Extension-CareConnect-MedicationFlagAssociation-1">
					<valueReference>
						<reference value="8cb5665c-6d66-4ed2-8cea-97cb8f559252"/>
					</valueReference>
				</extension>
				<identifier>
					<system value="https://tools.ietf.org/html/rfc4122"/>
					<value value="abb1c8d5-ec01-4a0d-af12-8251c1cf55fb"/>
				</identifier>
				<category>
					<coding>
						<system value="http://hl7.org/fhir/flag-category"/>
						<code value="drug"/>
						<display value="Drug"/>
					</coding>
				</category>
				<status value="active"/>
				<subject>
					<reference value="urn:uuid:31686b67-9f20-4644-9a54-193d2f91de57"/>
					<display value="SMITH, Richard (Mr)"/>
				</subject>
				<code>
					<coding>
						<system value="https://fhir.hl7.org.uk/CareConnect-MedicationFlag-1"/>
						<code value="continue-indefinitely"/>
						<display value="Continue Indefinitely"/>
					</coding>
				</code>
			</Flag>
		</resource>
	</entry>
	<!--Medication Flag Example 3-->
	<entry>
		<fullUrl value="urn:uuid:23a80c56-2b99-414e-9d3f-c885d29cea18"/>
		<resource>
			<Flag>
				<id value="23a80c56-2b99-414e-9d3f-c885d29cea18"/>
				<meta>
					<profile value="https://fhir.hl7.org.uk/StructureDefinition/CareConnect-Medication-Flag-1"/>
				</meta>
				<extension url="https://fhir.hl7.org.uk/StructureDefinition/Extension-CareConnect-MedicationFlagAssociation-1">
					<valueReference>
						<reference value="934ac400-f197-4bbc-a307-5ce8d271d4dd"/>
					</valueReference>
				</extension>
				<identifier>
					<system value="https://tools.ietf.org/html/rfc4122"/>
					<value value="f47f6e57-1e25-455c-916e-d4b05ba4427b"/>
				</identifier>
				<category>
					<coding>
						<system value="http://hl7.org/fhir/flag-category"/>
						<code value="drug"/>
						<display value="Drug"/>
					</coding>
				</category>
				<status value="active"/>
				<subject>
					<reference value="urn:uuid:31686b67-9f20-4644-9a54-193d2f91de57"/>
					<display value="SMITH, Richard (Mr)"/>
				</subject>
				<code>
					<coding>
						<system value="https://fhir.hl7.org.uk/CareConnect-MedicationFlag-1"/>
						<code value="continue-indefinitely"/>
						<display value="Continue Indefinitely"/>
					</coding>
				</code>
			</Flag>
		</resource>
	</entry>
	<!--Medication Flag Example 4-->
	<entry>
		<fullUrl value="urn:uuid:0919ca00-56c4-46f3-b435-8202b00563f0"/>
		<resource>
			<Flag>
				<id value="0919ca00-56c4-46f3-b435-8202b00563f0"/>
				<meta>
					<profile value="https://fhir.hl7.org.uk/StructureDefinition/CareConnect-Medication-Flag-1"/>
				</meta>
				<extension url="https://fhir.hl7.org.uk/StructureDefinition/Extension-CareConnect-MedicationFlagAssociation-1">
					<valueReference>
						<reference value="1092404d-00c9-4f9e-b7df-9abbc8762c91"/><!--urn:uuid prefix with cause validator to crash-->
					</valueReference>
				</extension>
				<identifier>
					<system value="https://tools.ietf.org/html/rfc4122"/>
					<value value="68c66ebf-b8e4-4030-a00a-1f0ae9aef40d"/>
				</identifier>
				<category>
					<coding>
						<system value="http://hl7.org/fhir/flag-category"/>
						<code value="drug"/>
						<display value="Drug"/>
					</coding>
				</category>
				<status value="active"/>
				<subject>
					<reference value="urn:uuid:31686b67-9f20-4644-9a54-193d2f91de57"/>
					<display value="SMITH, Richard (Mr)"/>
				</subject>
				<code>
					<coding>
						<system value="https://fhir.hl7.org.uk/CareConnect-MedicationFlag-1"/>
						<code value="do-not-discontinue"/>
						<display value="Do Not discontinue Medication"/>
					</coding>
				</code>
			</Flag>
		</resource>
	</entry>
	<!--Patient and carer concerns-->
	<entry>
	<fullUrl value="urn:uuid:86918d65-77d6-459b-b0af-a82a4c2a5f32"/>
		<resource>
			<Observation>
				<id value="3d14897b-f6cd-43fa-beb5-fc3fa4b32ee5"/>
				<meta>
				<profile value="https://fhir.hl7.org.uk/StructureDefinition/CareConnect-Observation-1"/>
				</meta>
		<identifier>
		<system value="https://tools.ietf.org/html/rfc4122"/>
			<value value="bbbbfe3f-84d5-499a-9814-121179fa4905"/>
		</identifier>
		<status value="final"/>
		<code>
			<coding>
				<system value="http://snomed.info/sct"/>
				<code value="304253006"/>
				<display value="Not for resuscitation"/>
			</coding>
		</code>
	<subject>
		<reference value="urn:uuid:31686b67-9f20-4644-9a54-193d2f91de57"/>
		<display value="WALKER, Margaret (Mrs)"/>
	</subject>
			</Observation>
		</resource>
	</entry>

	<!--Legal-->
	<entry>
		<fullUrl value="urn:uuid:8a2143f3-85ab-4143-9df4-a6262d87f976"/>
		<resource>
			<Contract>
				<id value="c5d96e66-e6be-4166-b820-fadb9f4df839"/>
				<meta>
					<profile value="https://fhir.nhs.uk/StructureDefinition/COFE-PowerOfAttorney-Contract-1"/>	
				</meta>
				<actionReason>
					<coding>
						<system value="http://snomed.info/sct"/>
						<code value="341041000000103"/>
						<display value="Lasting power of attorney property and affairs "/>
					</coding>
					<text value="Ms. Walker’s son, Timothy and daughter, Karen have an LPA for handling her financial matters."/>
				</actionReason>
						<actor>
					<entity>
						<reference value="urn:uuid:08b422a8-3869-475c-a19b-1b8ca91374a4"/>
					</entity>
				</actor>
				<actor>
					<entity>
						<reference value="urn:uuid:bd290645-107d-4a5c-bae6-f6e89f21b702"/>
					</entity>
				</actor>
			</Contract>
		</resource>
	</entry>

	<!--Related person 1-->
	<entry>
		<fullUrl value="urn:uuid:08b422a8-3869-475c-a19b-1b8ca91374a4"/>
		<resource>
			<RelatedPerson>
				<id value="08b422a8-3869-475c-a19b-1b8ca91374a4"/>
				<meta>
					<profile value="https://fhir.nhs.uk/StructureDefinition/cofe-related-person-1"/>	
				</meta>
				<patient>
				<reference value="urn:uuid:31686b67-9f20-4644-9a54-193d2f91de57"/>
					<display value="WALKER, Margaret (Mrs)"/>
				</patient>
				<relationship>
					<coding>
						<system value="http://hl7.org/fhir/ValueSet/relatedperson-relationshiptype"/>
						<code value="DAUC"/>
						<display value="daughter"/>
					</coding>
				</relationship>
			</RelatedPerson>
		</resource>
	</entry>	
		<!--Related person 2-->
	<entry>
		<fullUrl value="urn:uuid:bd290645-107d-4a5c-bae6-f6e89f21b702"/>
		<resource>
			<RelatedPerson>
				<id value="bd290645-107d-4a5c-bae6-f6e89f21b702"/>
				<meta>
					<profile value="https://fhir.nhs.uk/StructureDefinition/cofe-related-person-1"/>	
				</meta>
				<patient>
				<reference value="urn:uuid:31686b67-9f20-4644-9a54-193d2f91de57"/>
					<display value="WALKER, Margaret (Mrs)"/>
				</patient>
				<relationship>
					<coding>
						<system value="http://hl7.org/fhir/ValueSet/relatedperson-relationshiptype"/>
						<code value="SONC"/>
						<display value="son"/>
					</coding>
				</relationship>
			</RelatedPerson>
		</resource>
	</entry>	
	<!--Patient-Example-1-->
	<entry>
		<fullUrl value="urn:uuid:31686b67-9f20-4644-9a54-193d2f91de57"/>
		<resource>
			<Patient>
				<id value="31686b67-9f20-4644-9a54-193d2f91de57"/>
				<meta>
					<profile value="https://fhir.hl7.org.uk/StructureDefinition/CareConnect-Patient-1"/>
				</meta>
				<extension url="https://fhir.hl7.org.uk/StructureDefinition/Extension-CareConnect-EthnicCategory-1">
					<valueCodeableConcept>
						<coding>
							<system value="https://fhir.hl7.org.uk/CareConnect-EthnicCategory-1"/>
							<code value="A"/>
							<display value="British, Mixed British"/>
						</coding>
					</valueCodeableConcept>
				</extension>
				<extension url="https://fhir.hl7.org.uk/StructureDefinition/Extension-CareConnect-ReligiousAffiliation-1">
					<valueCodeableConcept>
						<coding>
							<system value="http://snomed.info/sct"/>
							<code value="80587008"/>
							<display value="Jehovah's Witness"/>
						</coding>
					</valueCodeableConcept>
				</extension>
				<extension url="http://hl7.org/fhir/StructureDefinition/patient-cadavericDonor">
					<valueBoolean value="false"/>
				</extension>
				<extension url="https://fhir.hl7.org.uk/StructureDefinition/Extension-CareConnect-ResidentialStatus-1">
					<valueCodeableConcept>
						<coding>
							<system value="https://fhir.hl7.org.uk/CareConnect-ResidentialStatus-1"/>
							<code value="H"/>
							<display value="UK Resident"/>
						</coding>
					</valueCodeableConcept>
				</extension>
				<extension url="https://fhir.hl7.org.uk/StructureDefinition/Extension-CareConnect-TreatmentCategory-1">
					<valueCodeableConcept>
						<coding>
							<system value="https://fhir.hl7.org.uk/CareConnect-TreatmentCategory-1"/>
							<code value="8"/>
							<display value="Not applicable"/>
						</coding>
					</valueCodeableConcept>
				</extension>
				<extension url="https://fhir.hl7.org.uk/StructureDefinition/Extension-CareConnect-NHSCommunication-1">
					<extension url="language">
						<valueCodeableConcept>
							<coding>
								<system value="https://fhir.hl7.org.uk/CareConnect-HumanLanguage-1"/>
								<code value="en"/>
								<display value="English"/>
							</coding>
						</valueCodeableConcept>
					</extension>
					<extension url="preferred">
						<valueBoolean value="true"/>
					</extension>
					<extension url="modeOfCommunication">
						<valueCodeableConcept>
							<coding>
								<system value="https://fhir.hl7.org.uk/CareConnect-LanguageAbilityMode-1"/>
								<code value="ESP"/>
								<display value="Expressed spoken"/>
							</coding>
						</valueCodeableConcept>
					</extension>
					<extension url="modeOfCommunication">
						<valueCodeableConcept>
							<coding>
								<system value="https://fhir.hl7.org.uk/CareConnect-LanguageAbilityMode-1"/>
								<code value="RWR"/>
								<display value="Received written"/>
							</coding>
						</valueCodeableConcept>
					</extension>
					<extension url="communicationProficiency">
						<valueCodeableConcept>
							<coding>
								<system value="https://fhir.hl7.org.uk/CareConnect-LanguageAbilityProficiency-1"/>
								<code value="E"/>
								<display value="Excellent"/>
							</coding>
						</valueCodeableConcept>
					</extension>
					<extension url="interpreterRequired">
						<valueBoolean value="false"/>
					</extension>
				</extension>
				<identifier>
					<extension url="https://fhir.hl7.org.uk/StructureDefinition/Extension-CareConnect-NHSNumberVerificationStatus-1">
						<valueCodeableConcept>
							<coding>
								<system value="https://fhir.hl7.org.uk/CareConnect-NHSNumberVerificationStatus-1"/>
								<code value="01"/>
								<display value="Number present and verified"/>
							</coding>
						</valueCodeableConcept>
					</extension>
					<system value="https://fhir.nhs.uk/Id/nhs-number"/>
					<value value="1352465790"/>
				</identifier>
				<active value="true"/>
				<name>
					<use value="usual"/>
					<family value="Margaret"/>
					<given value="Walker"/>
					<prefix value="Mrs"/>
				</name>
					<telecom>
					<system value="phone"/>
					<value value="077 1234 1111"/>
					<use value="mobile"/>
				</telecom>
				<telecom>
					<system value="email"/>
					<value value="margaret@walker.net"/>
					<use value="home"/>
				</telecom>
				<gender value="female"/>
				<birthDate value="1964-02-01"/>
				<address>
					<use value="home"/>
					<line value="30 Acacia Road"/>
					<postalCode value="BM9 6PL"/>
				</address>
				<careProvider>
					<reference value="urn:uuid:f9f24f89-646b-4a19-a6b1-cabfa3b612e1"/>
					<display value="Canvas Health Centre"/>
				</careProvider>
			</Patient>
		</resource>
	</entry>
	<!--Practitioner-Example-1-->
	<entry>
		<fullUrl value="urn:uuid:8ece9986-9af0-4882-b0cf-23a96ea7b509"/>
		<resource>
			<Practitioner>
				<id value="8ece9986-9af0-4882-b0cf-23a96ea7b509"/>
				<meta>
					<profile value="https://fhir.hl7.org.uk/StructureDefinition/CareConnect-Practitioner-1"/>
				</meta>
				<name>
					<family value="Bryant"/>
					<given value="N"/>
					<prefix value="Mrs"/>
				</name>
				<telecom>
					<system value="phone"/>
					<value value="01136323200"/>
					<use value="work"/>
				</telecom>
				<practitionerRole>
					<managingOrganization>
						<reference value="urn:uuid:12bba528-a08a-448b-946b-7e8008044025"/>
						<display value="St Crispin’s Hospital"/>
					</managingOrganization>
					<role>
						<coding>
							<system value="https://fhir.hl7.org.uk/CareConnect-SDSJobRoleName-1"/>
							<code value="R0600"/>
							<display value="Specialist Nurse Practitioner"/>
						</coding>
					</role>
				</practitionerRole>
			</Practitioner>
		</resource>
	</entry>
	<!--Practitioner-Example-2-->
	<entry>
		<fullUrl value="urn:uuid:5e414a77-d394-4248-a631-00e45ddb64a0"/>
		<resource>
			<Practitioner>
				<id value="5e414a77-d394-4248-a631-00e45ddb64a0"/>
				<meta>
					<profile value="https://fhir.hl7.org.uk/StructureDefinition/CareConnect-Practitioner-1"/>
				</meta>
				<identifier>
					<system value="https://fhir.nhs.uk/Id/sds-user-id"/>
					<value value="GP12345600"/>
				</identifier>
				<name>
					<family value="O`Reilly"/>
					<given value="C"/>
					<prefix value="Dr"/>
				</name>
				<telecom>
						<system value="phone"/>
						<value value="01234 562987"/>
						<use value="work"/>
				</telecom>
				<practitionerRole>
					<managingOrganization>
						<reference value="urn:uuid:f9f24f89-646b-4a19-a6b1-cabfa3b612e1"/>
						<display value="Canvas Health Centre"/>
					</managingOrganization>
					<role>
						<coding>
							<system value="https://fhir.hl7.org.uk/CareConnect-SDSJobRoleName-1"/>
							<code value="R0260"/>
							<display value="General Medical Practitioner"/>
						</coding>
					</role>
				</practitionerRole>
			</Practitioner>
		</resource>
	</entry>
	<!--Practitioner-Example-3-->
	<entry>
		<fullUrl value="urn:uuid:d25fd1c6-2658-4db7-9af0-86c5f95e8ec9"/>
		<resource>
			<Practitioner>
				<id value="d25fd1c6-2658-4db7-9af0-86c5f95e8ec9"/>
				<meta>
					<profile value="https://fhir.hl7.org.uk/StructureDefinition/CareConnect-Practitioner-1"/>
				</meta>
				<name>
					<family value="MacKay"/>
					<given value="Doris"/>
					<prefix value="Dr"/>
				</name>
				<telecom>
					<system value="phone"/>
					<value value="01234 567890"/>
					<use value="work"/>
				</telecom>
				<address>
					<line value="St Crispin’s Hospital"/>
					<line value="Department of Palliative Medicine"/>
					<city value="Donaldstown"/>
					<postalCode value="DO5 7TP"/>
				</address>
				<practitionerRole>
					<managingOrganization>
						<reference value="urn:uuid:e1580b71-99bd-4c5b-8d54-9b420418135f"/>
						<display value="St Crispin’s Hospital"/>
					</managingOrganization>
					<role>
						<coding>
							<system value="https://fhir.hl7.org.uk/CareConnect-SDSJobRoleName-1"/>
							<code value="R0050"/>
							<display value="Consultant"/>
						</coding>
					</role>
				</practitionerRole>
			</Practitioner>
		</resource>
	</entry>
	<!--Organization-Example-1-->
	<entry>
		<fullUrl value="urn:uuid:f9f24f89-646b-4a19-a6b1-cabfa3b612e1"/>
		<resource>
			<Organization>
				<id value="f9f24f89-646b-4a19-a6b1-cabfa3b612e1"/>
				<meta>
					<profile value="https://fhir.hl7.org.uk/StructureDefinition/CareConnect-Organization-1"/>
				</meta>
				<identifier>
					<system value="https://fhir.nhs.uk/Id/ods-organization-code"/>
					<value value="A111111"/>
				</identifier>
				<type>
					<coding>
						<system value="http://hl7.org/fhir/organization-type"/>
						<code value="prov"/>
						<display value="Healthcare Provider"/>
					</coding>
				</type>
				<name value="Canvas Health Centre"/>
				<telecom>
					<system value="phone"/>
					<value value="01234 956412"/>
					<use value="work"/>
				</telecom>
				<telecom>
					<system value="email"/>
					<value value="Admin@MMC.co.uk"/>
				</telecom>
				<address>
					<use value="work"/>
					<line value="27 Acacia Road"/>
					<line value="BM9 6PM "/>
				</address>
			</Organization>
		</resource>
	</entry>
	<!--Organization-Example-2-->
	<entry>
		<fullUrl value="urn:uuid:12bba528-a08a-448b-946b-7e8008044025"/>
		<resource>
			<Organization>
				<id value="12bba528-a08a-448b-946b-7e8008044025"/>
				<meta>
					<profile value="https://fhir.hl7.org.uk/StructureDefinition/CareConnect-Organization-1"/>
				</meta>
				<identifier>
					<system value="https://fhir.nhs.uk/Id/ods-organization-code"/>
					<value value="RR8"/>
				</identifier>
				<type>
					<coding>
						<system value="http://hl7.org/fhir/organization-type"/>
						<code value="prov"/>
						<display value="Healthcare Provider"/>
					</coding>
				</type>
				<name value="St Crispin’s Hospital"/>
				<telecom>
					<system value="phone"/>
					<value value="01234 567890"/>
					<use value="work"/>
				</telecom>
				<address>
					<line value="St Crispin’s Hospital"/>
					<line value="Department of Palliative Medicine"/>
					<line value="Donaldstown"/>
					<postalCode value="DO5 7TP"/>
				</address>
			</Organization>
		</resource>
	</entry>
	<!--Location-Example-1-->
	<entry>
		<fullUrl value="urn:uuid:01bb1ccc-577b-4a4a-9fb0-9c8fe9f21fa3"/>
		<resource>
			<Location>
				<id value="01bb1ccc-577b-4a4a-9fb0-9c8fe9f21fa3"/>
				<meta>
					<profile value="https://fhir.hl7.org.uk/StructureDefinition/CareConnect-Location-1"/>
				</meta>
				<name value="Leeds Teaching Hospital"/>
				<type>
					<coding>
						<system value="http://hl7.org/fhir/v3/RoleCode"/>
						<code value="HOSP"/>
						<display value="Hospital"/>
					</coding>
				</type>
			</Location>
		</resource>
	</entry>
</Bundle>
